Diffraction MTF

File : C:\Users\Trisha\Documents\Zemax\SAMPLES\Navarro_Trisha_scene2retina.ZMX
Title: 
Date : 10/15/2018


Data for 0.6328 Âµm.
Surface: Image (RETINA)
Angular Frequency units are cycles per mr.
Modulation is relative to 1.0.

Field: 0.00, 0.00 (deg)
Spatial Frequency	  Tangential	    Sagittal
         0.000000	    1.000000	    1.000000
         0.005000	    0.999042	    0.999042
         0.010000	    0.997989	    0.997989
         0.015000	    0.996806	    0.996806
         0.020000	    0.995515	    0.995515
         0.025000	    0.994118	    0.994118
         0.030000	    0.992612	    0.992612
         0.035000	    0.991002	    0.991002
         0.040000	    0.989292	    0.989292
         0.045000	    0.987481	    0.987481
         0.050000	    0.985574	    0.985574
         0.055000	    0.983573	    0.983573
         0.060000	    0.981480	    0.981480
         0.065000	    0.979297	    0.979297
         0.070000	    0.977027	    0.977027
         0.075000	    0.974673	    0.974673
         0.080000	    0.972236	    0.972236
         0.085000	    0.969720	    0.969720
         0.090000	    0.967127	    0.967127
         0.095000	    0.964458	    0.964458
         0.100000	    0.961717	    0.961717
         0.105000	    0.958907	    0.958907
         0.110000	    0.956028	    0.956028
         0.115000	    0.953084	    0.953084
         0.120000	    0.950077	    0.950077
         0.125000	    0.947009	    0.947009
         0.130000	    0.943883	    0.943883
         0.135000	    0.940701	    0.940701
         0.140000	    0.937465	    0.937465
         0.145000	    0.934177	    0.934177
         0.150000	    0.930839	    0.930839
         0.155000	    0.927454	    0.927454
         0.160000	    0.924024	    0.924024
         0.165000	    0.920551	    0.920551
         0.170000	    0.917037	    0.917037
         0.175000	    0.913483	    0.913483
         0.180000	    0.909892	    0.909892
         0.185000	    0.906267	    0.906267
         0.190000	    0.902608	    0.902608
         0.195000	    0.898918	    0.898918
         0.200000	    0.895198	    0.895198
         0.205000	    0.891451	    0.891451
         0.210000	    0.887678	    0.887678
         0.215000	    0.883881	    0.883881
         0.220000	    0.880062	    0.880062
         0.225000	    0.876222	    0.876222
         0.230000	    0.872363	    0.872363
         0.235000	    0.868487	    0.868487
         0.240000	    0.864595	    0.864595
         0.245000	    0.860689	    0.860689
         0.250000	    0.856770	    0.856770
         0.255000	    0.852839	    0.852839
         0.260000	    0.848900	    0.848900
         0.265000	    0.844952	    0.844952
         0.270000	    0.840999	    0.840999
         0.275000	    0.837039	    0.837039
         0.280000	    0.833075	    0.833075
         0.285000	    0.829108	    0.829108
         0.290000	    0.825139	    0.825139
         0.295000	    0.821169	    0.821169
         0.300000	    0.817199	    0.817199
         0.305000	    0.813231	    0.813231
         0.310000	    0.809266	    0.809266
         0.315000	    0.805304	    0.805304
         0.320000	    0.801347	    0.801347
         0.325000	    0.797395	    0.797395
         0.330000	    0.793450	    0.793450
         0.335000	    0.789512	    0.789512
         0.340000	    0.785583	    0.785583
         0.345000	    0.781663	    0.781663
         0.350000	    0.777753	    0.777753
         0.355000	    0.773854	    0.773854
         0.360000	    0.769967	    0.769967
         0.365000	    0.766092	    0.766092
         0.370000	    0.762230	    0.762230
         0.375000	    0.758383	    0.758383
         0.380000	    0.754549	    0.754549
         0.385000	    0.750731	    0.750731
         0.390000	    0.746928	    0.746928
         0.395000	    0.743142	    0.743142
         0.400000	    0.739372	    0.739372
         0.405000	    0.735620	    0.735620
         0.410000	    0.731886	    0.731886
         0.415000	    0.728170	    0.728170
         0.420000	    0.724473	    0.724473
         0.425000	    0.720795	    0.720795
         0.430000	    0.717137	    0.717137
         0.435000	    0.713499	    0.713499
         0.440000	    0.709881	    0.709881
         0.445000	    0.706284	    0.706284
         0.450000	    0.702709	    0.702709
         0.455000	    0.699154	    0.699154
         0.460000	    0.695622	    0.695622
         0.465000	    0.692111	    0.692111
         0.470000	    0.688623	    0.688623
         0.475000	    0.685158	    0.685158
         0.480000	    0.681715	    0.681715
         0.485000	    0.678295	    0.678295
         0.490000	    0.674898	    0.674898
         0.495000	    0.671525	    0.671525
         0.500000	    0.668175	    0.668175
         0.505000	    0.664848	    0.664848
         0.510000	    0.661546	    0.661546
         0.515000	    0.658267	    0.658267
         0.520000	    0.655014	    0.655014
         0.525000	    0.651785	    0.651785
         0.530000	    0.648580	    0.648580
         0.535000	    0.645400	    0.645400
         0.540000	    0.642243	    0.642243
         0.545000	    0.639111	    0.639111
         0.550000	    0.636004	    0.636004
         0.555000	    0.632920	    0.632920
         0.560000	    0.629861	    0.629861
         0.565000	    0.626827	    0.626827
         0.570000	    0.623816	    0.623816
         0.575000	    0.620831	    0.620831
         0.580000	    0.617869	    0.617869
         0.585000	    0.614932	    0.614932
         0.590000	    0.612018	    0.612018
         0.595000	    0.609129	    0.609129
         0.600000	    0.606265	    0.606265
         0.605000	    0.603424	    0.603424
         0.610000	    0.600607	    0.600607
         0.615000	    0.597814	    0.597814
         0.620000	    0.595045	    0.595045
         0.625000	    0.592299	    0.592299
         0.630000	    0.589578	    0.589578
         0.635000	    0.586879	    0.586879
         0.640000	    0.584204	    0.584204
         0.645000	    0.581553	    0.581553
         0.650000	    0.578924	    0.578924
         0.655000	    0.576318	    0.576318
         0.660000	    0.573736	    0.573736
         0.665000	    0.571176	    0.571176
         0.670000	    0.568639	    0.568639
         0.675000	    0.566124	    0.566124
         0.680000	    0.563632	    0.563632
         0.685000	    0.561162	    0.561162
         0.690000	    0.558715	    0.558715
         0.695000	    0.556291	    0.556291
         0.700000	    0.553888	    0.553888
         0.705000	    0.551506	    0.551506
         0.710000	    0.549147	    0.549147
         0.715000	    0.546808	    0.546808
         0.720000	    0.544490	    0.544490
         0.725000	    0.542194	    0.542194
         0.730000	    0.539918	    0.539918
         0.735000	    0.537662	    0.537662
         0.740000	    0.535427	    0.535427
         0.745000	    0.533213	    0.533213
         0.750000	    0.531018	    0.531018
         0.755000	    0.528843	    0.528843
         0.760000	    0.526688	    0.526688
         0.765000	    0.524552	    0.524552
         0.770000	    0.522435	    0.522435
         0.775000	    0.520338	    0.520338
         0.780000	    0.518260	    0.518260
         0.785000	    0.516200	    0.516200
         0.790000	    0.514159	    0.514159
         0.795000	    0.512137	    0.512137
         0.800000	    0.510132	    0.510132
         0.805000	    0.508146	    0.508146
         0.810000	    0.506177	    0.506177
         0.815000	    0.504227	    0.504227
         0.820000	    0.502293	    0.502293
         0.825000	    0.500377	    0.500377
         0.830000	    0.498480	    0.498480
         0.835000	    0.496600	    0.496600
         0.840000	    0.494737	    0.494737
         0.845000	    0.492890	    0.492890
         0.850000	    0.491059	    0.491059
         0.855000	    0.489245	    0.489245
         0.860000	    0.487447	    0.487447
         0.865000	    0.485665	    0.485665
         0.870000	    0.483898	    0.483898
         0.875000	    0.482147	    0.482147
         0.880000	    0.480412	    0.480412
         0.885000	    0.478691	    0.478691
         0.890000	    0.476986	    0.476986
         0.895000	    0.475295	    0.475295
         0.900000	    0.473619	    0.473619
         0.905000	    0.471957	    0.471957
         0.910000	    0.470310	    0.470310
         0.915000	    0.468677	    0.468677
         0.920000	    0.467058	    0.467058
         0.925000	    0.465453	    0.465453
         0.930000	    0.463861	    0.463861
         0.935000	    0.462283	    0.462283
         0.940000	    0.460719	    0.460719
         0.945000	    0.459169	    0.459169
         0.950000	    0.457632	    0.457632
         0.955000	    0.456108	    0.456108
         0.960000	    0.454597	    0.454597
         0.965000	    0.453098	    0.453098
         0.970000	    0.451612	    0.451612
         0.975000	    0.450138	    0.450138
         0.980000	    0.448676	    0.448676
         0.985000	    0.447226	    0.447226
         0.990000	    0.445787	    0.445787
         0.995000	    0.444361	    0.444361
         1.000000	    0.442946	    0.442946
         1.005000	    0.441542	    0.441542
         1.010000	    0.440149	    0.440149
         1.015000	    0.438768	    0.438768
         1.020000	    0.437397	    0.437397
         1.025000	    0.436038	    0.436038
         1.030000	    0.434689	    0.434689
         1.035000	    0.433350	    0.433350
         1.040000	    0.432023	    0.432023
         1.045000	    0.430707	    0.430707
         1.050000	    0.429401	    0.429401
         1.055000	    0.428105	    0.428105
         1.060000	    0.426819	    0.426819
         1.065000	    0.425542	    0.425542
         1.070000	    0.424276	    0.424276
         1.075000	    0.423018	    0.423018
         1.080000	    0.421771	    0.421771
         1.085000	    0.420532	    0.420532
         1.090000	    0.419303	    0.419303
         1.095000	    0.418082	    0.418082
         1.100000	    0.416871	    0.416871
         1.105000	    0.415668	    0.415668
         1.110000	    0.414474	    0.414474
         1.115000	    0.413289	    0.413289
         1.120000	    0.412112	    0.412112
         1.125000	    0.410944	    0.410944
         1.130000	    0.409786	    0.409786
         1.135000	    0.408635	    0.408635
         1.140000	    0.407493	    0.407493
         1.145000	    0.406358	    0.406358
         1.150000	    0.405232	    0.405232
         1.155000	    0.404113	    0.404113
         1.160000	    0.403002	    0.403002
         1.165000	    0.401898	    0.401898
         1.170000	    0.400801	    0.400801
         1.175000	    0.399712	    0.399712
         1.180000	    0.398631	    0.398631
         1.185000	    0.397556	    0.397556
         1.190000	    0.396489	    0.396489
         1.195000	    0.395428	    0.395428
         1.200000	    0.394374	    0.394374
         1.205000	    0.393327	    0.393327
         1.210000	    0.392288	    0.392288
         1.215000	    0.391257	    0.391257
         1.220000	    0.390231	    0.390231
         1.225000	    0.389213	    0.389213
         1.230000	    0.388200	    0.388200
         1.235000	    0.387194	    0.387194
         1.240000	    0.386194	    0.386194
         1.245000	    0.385200	    0.385200
         1.250000	    0.384212	    0.384212
         1.255000	    0.383230	    0.383230
         1.260000	    0.382255	    0.382255
         1.265000	    0.381284	    0.381284
         1.270000	    0.380320	    0.380320
         1.275000	    0.379361	    0.379361
         1.280000	    0.378408	    0.378408
         1.285000	    0.377460	    0.377460
         1.290000	    0.376518	    0.376518
         1.295000	    0.375583	    0.375583
         1.300000	    0.374653	    0.374653
         1.305000	    0.373729	    0.373729
         1.310000	    0.372810	    0.372810
         1.315000	    0.371896	    0.371896
         1.320000	    0.370987	    0.370987
         1.325000	    0.370083	    0.370083
         1.330000	    0.369183	    0.369183
         1.335000	    0.368289	    0.368289
         1.340000	    0.367400	    0.367400
         1.345000	    0.366515	    0.366515
         1.350000	    0.365635	    0.365635
         1.355000	    0.364760	    0.364760
         1.360000	    0.363889	    0.363889
         1.365000	    0.363024	    0.363024
         1.370000	    0.362164	    0.362164
         1.375000	    0.361308	    0.361308
         1.380000	    0.360457	    0.360457
         1.385000	    0.359610	    0.359610
         1.390000	    0.358767	    0.358767
         1.395000	    0.357929	    0.357929
         1.400000	    0.357094	    0.357094
         1.405000	    0.356264	    0.356264
         1.410000	    0.355438	    0.355438
         1.415000	    0.354616	    0.354616
         1.420000	    0.353797	    0.353797
         1.425000	    0.352983	    0.352983
         1.430000	    0.352172	    0.352172
         1.435000	    0.351366	    0.351366
         1.440000	    0.350565	    0.350565
         1.445000	    0.349768	    0.349768
         1.450000	    0.348974	    0.348974
         1.455000	    0.348184	    0.348184
         1.460000	    0.347397	    0.347397
         1.465000	    0.346614	    0.346614
         1.470000	    0.345835	    0.345835
         1.475000	    0.345059	    0.345059
         1.480000	    0.344286	    0.344286
         1.485000	    0.343517	    0.343517
         1.490000	    0.342751	    0.342751
         1.495000	    0.341988	    0.341988
         1.500000	    0.341228	    0.341228
         1.505000	    0.340473	    0.340473
         1.510000	    0.339722	    0.339722
         1.515000	    0.338974	    0.338974
         1.520000	    0.338229	    0.338229
         1.525000	    0.337487	    0.337487
         1.530000	    0.336748	    0.336748
         1.535000	    0.336012	    0.336012
         1.540000	    0.335279	    0.335279
         1.545000	    0.334549	    0.334549
         1.550000	    0.333822	    0.333822
         1.555000	    0.333098	    0.333098
         1.560000	    0.332377	    0.332377
         1.565000	    0.331658	    0.331658
         1.570000	    0.330942	    0.330942
         1.575000	    0.330230	    0.330230
         1.580000	    0.329521	    0.329521
         1.585000	    0.328816	    0.328816
         1.590000	    0.328113	    0.328113
         1.595000	    0.327412	    0.327412
         1.600000	    0.326714	    0.326714
         1.605000	    0.326019	    0.326019
         1.610000	    0.325326	    0.325326
         1.615000	    0.324635	    0.324635
         1.620000	    0.323947	    0.323947
         1.625000	    0.323262	    0.323262
         1.630000	    0.322579	    0.322579
         1.635000	    0.321900	    0.321900
         1.640000	    0.321224	    0.321224
         1.645000	    0.320549	    0.320549
         1.650000	    0.319877	    0.319877
         1.655000	    0.319208	    0.319208
         1.660000	    0.318541	    0.318541
         1.665000	    0.317876	    0.317876
         1.670000	    0.317213	    0.317213
         1.675000	    0.316552	    0.316552
         1.680000	    0.315894	    0.315894
         1.685000	    0.315237	    0.315237
         1.690000	    0.314584	    0.314584
         1.695000	    0.313934	    0.313934
         1.700000	    0.313286	    0.313286
         1.705000	    0.312639	    0.312639
         1.710000	    0.311995	    0.311995
         1.715000	    0.311353	    0.311353
         1.720000	    0.310713	    0.310713
         1.725000	    0.310075	    0.310075
         1.730000	    0.309438	    0.309438
         1.735000	    0.308804	    0.308804
         1.740000	    0.308171	    0.308171
         1.745000	    0.307541	    0.307541
         1.750000	    0.306914	    0.306914
         1.755000	    0.306290	    0.306290
         1.760000	    0.305666	    0.305666
         1.765000	    0.305045	    0.305045
         1.770000	    0.304425	    0.304425
         1.775000	    0.303807	    0.303807
         1.780000	    0.303191	    0.303191
         1.785000	    0.302576	    0.302576
         1.790000	    0.301963	    0.301963
         1.795000	    0.301352	    0.301352
         1.800000	    0.300743	    0.300743
         1.805000	    0.300137	    0.300137
         1.810000	    0.299532	    0.299532
         1.815000	    0.298930	    0.298930
         1.820000	    0.298328	    0.298328
         1.825000	    0.297729	    0.297729
         1.830000	    0.297131	    0.297131
         1.835000	    0.296534	    0.296534
         1.840000	    0.295939	    0.295939
         1.845000	    0.295345	    0.295345
         1.850000	    0.294753	    0.294753
         1.855000	    0.294163	    0.294163
         1.860000	    0.293575	    0.293575
         1.865000	    0.292989	    0.292989
         1.870000	    0.292405	    0.292405
         1.875000	    0.291821	    0.291821
         1.880000	    0.291240	    0.291240
         1.885000	    0.290659	    0.290659
         1.890000	    0.290080	    0.290080
         1.895000	    0.289503	    0.289503
         1.900000	    0.288926	    0.288926
         1.905000	    0.288351	    0.288351
         1.910000	    0.287777	    0.287777
         1.915000	    0.287206	    0.287206
         1.920000	    0.286636	    0.286636
         1.925000	    0.286068	    0.286068
         1.930000	    0.285501	    0.285501
         1.935000	    0.284936	    0.284936
         1.940000	    0.284371	    0.284371
         1.945000	    0.283808	    0.283808
         1.950000	    0.283245	    0.283245
         1.955000	    0.282685	    0.282685
         1.960000	    0.282126	    0.282126
         1.965000	    0.281569	    0.281569
         1.970000	    0.281014	    0.281014
         1.975000	    0.280459	    0.280459
         1.980000	    0.279905	    0.279905
         1.985000	    0.279352	    0.279352
         1.990000	    0.278801	    0.278801
         1.995000	    0.278250	    0.278250
         2.000000	    0.277701	    0.277701
         2.005000	    0.277152	    0.277152
         2.010000	    0.276605	    0.276605
         2.015000	    0.276059	    0.276059
         2.020000	    0.275516	    0.275516
         2.025000	    0.274973	    0.274973
         2.030000	    0.274431	    0.274431
         2.035000	    0.273891	    0.273891
         2.040000	    0.273351	    0.273351
         2.045000	    0.272811	    0.272811
         2.050000	    0.272273	    0.272273
         2.055000	    0.271737	    0.271737
         2.060000	    0.271202	    0.271202
         2.065000	    0.270668	    0.270668
         2.070000	    0.270135	    0.270135
         2.075000	    0.269603	    0.269603
         2.080000	    0.269072	    0.269072
         2.085000	    0.268541	    0.268541
         2.090000	    0.268011	    0.268011
         2.095000	    0.267482	    0.267482
         2.100000	    0.266955	    0.266955
         2.105000	    0.266430	    0.266430
         2.110000	    0.265905	    0.265905
         2.115000	    0.265381	    0.265381
         2.120000	    0.264857	    0.264857
         2.125000	    0.264335	    0.264335
         2.130000	    0.263812	    0.263812
         2.135000	    0.263291	    0.263291
         2.140000	    0.262771	    0.262771
         2.145000	    0.262252	    0.262252
         2.150000	    0.261735	    0.261735
         2.155000	    0.261218	    0.261218
         2.160000	    0.260701	    0.260701
         2.165000	    0.260185	    0.260185
         2.170000	    0.259670	    0.259670
         2.175000	    0.259155	    0.259155
         2.180000	    0.258641	    0.258641
         2.185000	    0.258128	    0.258128
         2.190000	    0.257614	    0.257614
         2.195000	    0.257102	    0.257102
         2.200000	    0.256591	    0.256591
         2.205000	    0.256082	    0.256082
         2.210000	    0.255573	    0.255573
         2.215000	    0.255064	    0.255064
         2.220000	    0.254556	    0.254556
         2.225000	    0.254048	    0.254048
         2.230000	    0.253540	    0.253540
         2.235000	    0.253033	    0.253033
         2.240000	    0.252528	    0.252528
         2.245000	    0.252023	    0.252023
         2.250000	    0.251519	    0.251519
         2.255000	    0.251016	    0.251016
         2.260000	    0.250512	    0.250512
         2.265000	    0.250010	    0.250010
         2.270000	    0.249507	    0.249507
         2.275000	    0.249005	    0.249005
         2.280000	    0.248503	    0.248503
         2.285000	    0.248003	    0.248003
         2.290000	    0.247504	    0.247504
         2.295000	    0.247004	    0.247004
         2.300000	    0.246506	    0.246506
         2.305000	    0.246007	    0.246007
         2.310000	    0.245509	    0.245509
         2.315000	    0.245010	    0.245010
         2.320000	    0.244512	    0.244512
         2.325000	    0.244015	    0.244015
         2.330000	    0.243520	    0.243520
         2.335000	    0.243024	    0.243024
         2.340000	    0.242529	    0.242529
         2.345000	    0.242034	    0.242034
         2.350000	    0.241539	    0.241539
         2.355000	    0.241044	    0.241044
         2.360000	    0.240549	    0.240549
         2.365000	    0.240055	    0.240055
         2.370000	    0.239562	    0.239562
         2.375000	    0.239069	    0.239069
         2.380000	    0.238577	    0.238577
         2.385000	    0.238084	    0.238084
         2.390000	    0.237592	    0.237592
         2.395000	    0.237100	    0.237100
         2.400000	    0.236610	    0.236610
         2.405000	    0.236119	    0.236119
         2.410000	    0.235629	    0.235629
         2.415000	    0.235138	    0.235138
         2.420000	    0.234648	    0.234648
         2.425000	    0.234157	    0.234157
         2.430000	    0.233667	    0.233667
         2.435000	    0.233177	    0.233177
         2.440000	    0.232687	    0.232687
         2.445000	    0.232199	    0.232199
         2.450000	    0.231710	    0.231710
         2.455000	    0.231221	    0.231221
         2.460000	    0.230732	    0.230732
         2.465000	    0.230243	    0.230243
         2.470000	    0.229753	    0.229753
         2.475000	    0.229264	    0.229264
         2.480000	    0.228775	    0.228775
         2.485000	    0.228287	    0.228287
         2.490000	    0.227799	    0.227799
         2.495000	    0.227311	    0.227311
         2.500000	    0.226823	    0.226823
         2.505000	    0.226334	    0.226334
         2.510000	    0.225845	    0.225845
         2.515000	    0.225356	    0.225356
         2.520000	    0.224868	    0.224868
         2.525000	    0.224380	    0.224380
         2.530000	    0.223892	    0.223892
         2.535000	    0.223404	    0.223404
         2.540000	    0.222915	    0.222915
         2.545000	    0.222426	    0.222426
         2.550000	    0.221938	    0.221938
         2.555000	    0.221451	    0.221451
         2.560000	    0.220963	    0.220963
         2.565000	    0.220475	    0.220475
         2.570000	    0.219987	    0.219987
         2.575000	    0.219498	    0.219498
         2.580000	    0.219009	    0.219009
         2.585000	    0.218519	    0.218519
         2.590000	    0.218030	    0.218030
         2.595000	    0.217541	    0.217541
         2.600000	    0.217052	    0.217052
         2.605000	    0.216563	    0.216563
         2.610000	    0.216073	    0.216073
         2.615000	    0.215583	    0.215583
         2.620000	    0.215094	    0.215094
         2.625000	    0.214604	    0.214604
         2.630000	    0.214115	    0.214115
         2.635000	    0.213625	    0.213625
         2.640000	    0.213135	    0.213135
         2.645000	    0.212644	    0.212644
         2.650000	    0.212152	    0.212152
         2.655000	    0.211660	    0.211660
         2.660000	    0.211168	    0.211168
         2.665000	    0.210677	    0.210677
         2.670000	    0.210185	    0.210185
         2.675000	    0.209693	    0.209693
         2.680000	    0.209200	    0.209200
         2.685000	    0.208707	    0.208707
         2.690000	    0.208213	    0.208213
         2.695000	    0.207721	    0.207721
         2.700000	    0.207228	    0.207228
         2.705000	    0.206734	    0.206734
         2.710000	    0.206240	    0.206240
         2.715000	    0.205745	    0.205745
         2.720000	    0.205249	    0.205249
         2.725000	    0.204753	    0.204753
         2.730000	    0.204256	    0.204256
         2.735000	    0.203760	    0.203760
         2.740000	    0.203264	    0.203264
         2.745000	    0.202767	    0.202767
         2.750000	    0.202269	    0.202269
         2.755000	    0.201771	    0.201771
         2.760000	    0.201272	    0.201272
         2.765000	    0.200774	    0.200774
         2.770000	    0.200275	    0.200275
         2.775000	    0.199776	    0.199776
         2.780000	    0.199276	    0.199276
         2.785000	    0.198775	    0.198775
         2.790000	    0.198274	    0.198274
         2.795000	    0.197772	    0.197772
         2.800000	    0.197269	    0.197269
         2.805000	    0.196766	    0.196766
         2.810000	    0.196263	    0.196263
         2.815000	    0.195760	    0.195760
         2.820000	    0.195256	    0.195256
         2.825000	    0.194751	    0.194751
         2.830000	    0.194245	    0.194245
         2.835000	    0.193740	    0.193740
         2.840000	    0.193235	    0.193235
         2.845000	    0.192728	    0.192728
         2.850000	    0.192221	    0.192221
         2.855000	    0.191713	    0.191713
         2.860000	    0.191205	    0.191205
         2.865000	    0.190697	    0.190697
         2.870000	    0.190188	    0.190188
         2.875000	    0.189678	    0.189678
         2.880000	    0.189168	    0.189168
         2.885000	    0.188657	    0.188657
         2.890000	    0.188145	    0.188145
         2.895000	    0.187634	    0.187634
         2.900000	    0.187122	    0.187122
         2.905000	    0.186609	    0.186609
         2.910000	    0.186095	    0.186095
         2.915000	    0.185580	    0.185580
         2.920000	    0.185064	    0.185064
         2.925000	    0.184547	    0.184547
         2.930000	    0.184030	    0.184030
         2.935000	    0.183514	    0.183514
         2.940000	    0.182996	    0.182996
         2.945000	    0.182477	    0.182477
         2.950000	    0.181958	    0.181958
         2.955000	    0.181437	    0.181437
         2.960000	    0.180917	    0.180917
         2.965000	    0.180396	    0.180396
         2.970000	    0.179875	    0.179875
         2.975000	    0.179352	    0.179352
         2.980000	    0.178829	    0.178829
         2.985000	    0.178305	    0.178305
         2.990000	    0.177780	    0.177780
         2.995000	    0.177256	    0.177256
         3.000000	    0.176731	    0.176731
         3.005000	    0.176204	    0.176204
         3.010000	    0.175676	    0.175676
         3.015000	    0.175148	    0.175148
         3.020000	    0.174620	    0.174620
         3.025000	    0.174091	    0.174091
         3.030000	    0.173562	    0.173562
         3.035000	    0.173031	    0.173031
         3.040000	    0.172499	    0.172499
         3.045000	    0.171967	    0.171967
         3.050000	    0.171435	    0.171435
         3.055000	    0.170902	    0.170902
         3.060000	    0.170368	    0.170368
         3.065000	    0.169833	    0.169833
         3.070000	    0.169297	    0.169297
         3.075000	    0.168760	    0.168760
         3.080000	    0.168221	    0.168221
         3.085000	    0.167683	    0.167683
         3.090000	    0.167144	    0.167144
         3.095000	    0.166604	    0.166604
         3.100000	    0.166064	    0.166064
         3.105000	    0.165522	    0.165522
         3.110000	    0.164979	    0.164979
         3.115000	    0.164437	    0.164437
         3.120000	    0.163894	    0.163894
         3.125000	    0.163350	    0.163350
         3.130000	    0.162805	    0.162805
         3.135000	    0.162259	    0.162259
         3.140000	    0.161712	    0.161712
         3.145000	    0.161165	    0.161165
         3.150000	    0.160618	    0.160618
         3.155000	    0.160069	    0.160069
         3.160000	    0.159519	    0.159519
         3.165000	    0.158969	    0.158969
         3.170000	    0.158418	    0.158418
         3.175000	    0.157866	    0.157866
         3.180000	    0.157315	    0.157315
         3.185000	    0.156762	    0.156762
         3.190000	    0.156208	    0.156208
         3.195000	    0.155652	    0.155652
         3.200000	    0.155097	    0.155097
         3.205000	    0.154542	    0.154542
         3.210000	    0.153986	    0.153986
         3.215000	    0.153428	    0.153428
         3.220000	    0.152870	    0.152870
         3.225000	    0.152310	    0.152310
         3.230000	    0.151751	    0.151751
         3.235000	    0.151191	    0.151191
         3.240000	    0.150630	    0.150630
         3.245000	    0.150069	    0.150069
         3.250000	    0.149506	    0.149506
         3.255000	    0.148942	    0.148942
         3.260000	    0.148379	    0.148379
         3.265000	    0.147815	    0.147815
         3.270000	    0.147250	    0.147250
         3.275000	    0.146683	    0.146683
         3.280000	    0.146116	    0.146116
         3.285000	    0.145549	    0.145549
         3.290000	    0.144981	    0.144981
         3.295000	    0.144413	    0.144413
         3.300000	    0.143844	    0.143844
         3.305000	    0.143273	    0.143273
         3.310000	    0.142702	    0.142702
         3.315000	    0.142131	    0.142131
         3.320000	    0.141560	    0.141560
         3.325000	    0.140987	    0.140987
         3.330000	    0.140416	    0.140416
         3.335000	    0.139843	    0.139843
         3.340000	    0.139269	    0.139269
         3.345000	    0.138695	    0.138695
         3.350000	    0.138119	    0.138119
         3.355000	    0.137543	    0.137543
         3.360000	    0.136968	    0.136968
         3.365000	    0.136391	    0.136391
         3.370000	    0.135814	    0.135814
         3.375000	    0.135235	    0.135235
         3.380000	    0.134656	    0.134656
         3.385000	    0.134077	    0.134077
         3.390000	    0.133498	    0.133498
         3.395000	    0.132918	    0.132918
         3.400000	    0.132337	    0.132337
         3.405000	    0.131754	    0.131754
         3.410000	    0.131172	    0.131172
         3.415000	    0.130590	    0.130590
         3.420000	    0.130007	    0.130007
         3.425000	    0.129423	    0.129423
         3.430000	    0.128839	    0.128839
         3.435000	    0.128254	    0.128254
         3.440000	    0.127668	    0.127668
         3.445000	    0.127083	    0.127083
         3.450000	    0.126497	    0.126497
         3.455000	    0.125910	    0.125910
         3.460000	    0.125322	    0.125322
         3.465000	    0.124734	    0.124734
         3.470000	    0.124146	    0.124146
         3.475000	    0.123558	    0.123558
         3.480000	    0.122970	    0.122970
         3.485000	    0.122380	    0.122380
         3.490000	    0.121789	    0.121789
         3.495000	    0.121199	    0.121199
         3.500000	    0.120608	    0.120608
         3.505000	    0.120017	    0.120017
         3.510000	    0.119427	    0.119427
         3.515000	    0.118836	    0.118836
         3.520000	    0.118245	    0.118245
         3.525000	    0.117653	    0.117653
         3.530000	    0.117061	    0.117061
         3.535000	    0.116468	    0.116468
         3.540000	    0.115875	    0.115875
         3.545000	    0.115283	    0.115283
         3.550000	    0.114690	    0.114690
         3.555000	    0.114096	    0.114096
         3.560000	    0.113501	    0.113501
         3.565000	    0.112907	    0.112907
         3.570000	    0.112313	    0.112313
         3.575000	    0.111718	    0.111718
         3.580000	    0.111124	    0.111124
         3.585000	    0.110528	    0.110528
         3.590000	    0.109932	    0.109932
         3.595000	    0.109336	    0.109336
         3.600000	    0.108741	    0.108741
         3.605000	    0.108145	    0.108145
         3.610000	    0.107550	    0.107550
         3.615000	    0.106955	    0.106955
         3.620000	    0.106360	    0.106360
         3.625000	    0.105764	    0.105764
         3.630000	    0.105168	    0.105168
         3.635000	    0.104571	    0.104571
         3.640000	    0.103976	    0.103976
         3.645000	    0.103380	    0.103380
         3.650000	    0.102784	    0.102784
         3.655000	    0.102188	    0.102188
         3.660000	    0.101591	    0.101591
         3.665000	    0.100995	    0.100995
         3.670000	    0.100399	    0.100399
         3.675000	    0.099803	    0.099803
         3.680000	    0.099208	    0.099208
         3.685000	    0.098613	    0.098613
         3.690000	    0.098018	    0.098018
         3.695000	    0.097423	    0.097423
         3.700000	    0.096827	    0.096827
         3.705000	    0.096231	    0.096231
         3.710000	    0.095637	    0.095637
         3.715000	    0.095043	    0.095043
         3.720000	    0.094448	    0.094448
         3.725000	    0.093853	    0.093853
         3.730000	    0.093259	    0.093259
         3.735000	    0.092664	    0.092664
         3.740000	    0.092071	    0.092071
         3.745000	    0.091477	    0.091477
         3.750000	    0.090885	    0.090885
         3.755000	    0.090293	    0.090293
         3.760000	    0.089701	    0.089701
         3.765000	    0.089109	    0.089109
         3.770000	    0.088517	    0.088517
         3.775000	    0.087925	    0.087925
         3.780000	    0.087335	    0.087335
         3.785000	    0.086744	    0.086744
         3.790000	    0.086154	    0.086154
         3.795000	    0.085566	    0.085566
         3.800000	    0.084978	    0.084978
         3.805000	    0.084389	    0.084389
         3.810000	    0.083801	    0.083801
         3.815000	    0.083213	    0.083213
         3.820000	    0.082626	    0.082626
         3.825000	    0.082040	    0.082040
         3.830000	    0.081455	    0.081455
         3.835000	    0.080869	    0.080869
         3.840000	    0.080283	    0.080283
         3.845000	    0.079698	    0.079698
         3.850000	    0.079114	    0.079114
         3.855000	    0.078531	    0.078531
         3.860000	    0.077949	    0.077949
         3.865000	    0.077368	    0.077368
         3.870000	    0.076788	    0.076788
         3.875000	    0.076208	    0.076208
         3.880000	    0.075628	    0.075628
         3.885000	    0.075049	    0.075049
         3.890000	    0.074470	    0.074470
         3.895000	    0.073893	    0.073893
         3.900000	    0.073317	    0.073317
         3.905000	    0.072741	    0.072741
         3.910000	    0.072168	    0.072168
         3.915000	    0.071595	    0.071595
         3.920000	    0.071022	    0.071022
         3.925000	    0.070449	    0.070449
         3.930000	    0.069877	    0.069877
         3.935000	    0.069307	    0.069307
         3.940000	    0.068738	    0.068738
         3.945000	    0.068170	    0.068170
         3.950000	    0.067603	    0.067603
         3.955000	    0.067037	    0.067037
         3.960000	    0.066473	    0.066473
         3.965000	    0.065908	    0.065908
         3.970000	    0.065344	    0.065344
         3.975000	    0.064782	    0.064782
         3.980000	    0.064221	    0.064221
         3.985000	    0.063661	    0.063661
         3.990000	    0.063102	    0.063102
         3.995000	    0.062546	    0.062546
         4.000000	    0.061989	    0.061989
         4.005000	    0.061434	    0.061434
         4.010000	    0.060879	    0.060879
         4.015000	    0.060326	    0.060326
         4.020000	    0.059774	    0.059774
         4.025000	    0.059224	    0.059224
         4.030000	    0.058674	    0.058674
         4.035000	    0.058127	    0.058127
         4.040000	    0.057581	    0.057581
         4.045000	    0.057036	    0.057036
         4.050000	    0.056491	    0.056491
         4.055000	    0.055948	    0.055948
         4.060000	    0.055406	    0.055406
         4.065000	    0.054866	    0.054866
         4.070000	    0.054328	    0.054328
         4.075000	    0.053791	    0.053791
         4.080000	    0.053256	    0.053256
         4.085000	    0.052722	    0.052722
         4.090000	    0.052189	    0.052189
         4.095000	    0.051657	    0.051657
         4.100000	    0.051126	    0.051126
         4.105000	    0.050598	    0.050598
         4.110000	    0.050071	    0.050071
         4.115000	    0.049546	    0.049546
         4.120000	    0.049022	    0.049022
         4.125000	    0.048501	    0.048501
         4.130000	    0.047981	    0.047981
         4.135000	    0.047463	    0.047463
         4.140000	    0.046947	    0.046947
         4.145000	    0.046431	    0.046431
         4.150000	    0.045917	    0.045917
         4.155000	    0.045404	    0.045404
         4.160000	    0.044894	    0.044894
         4.165000	    0.044385	    0.044385
         4.170000	    0.043878	    0.043878
         4.175000	    0.043374	    0.043374
         4.180000	    0.042871	    0.042871
         4.185000	    0.042369	    0.042369
         4.190000	    0.041869	    0.041869
         4.195000	    0.041370	    0.041370
         4.200000	    0.040873	    0.040873
         4.205000	    0.040379	    0.040379
         4.210000	    0.039886	    0.039886
         4.215000	    0.039395	    0.039395
         4.220000	    0.038906	    0.038906
         4.225000	    0.038420	    0.038420
         4.230000	    0.037935	    0.037935
         4.235000	    0.037453	    0.037453
         4.240000	    0.036973	    0.036973
         4.245000	    0.036494	    0.036494
         4.250000	    0.036016	    0.036016
         4.255000	    0.035540	    0.035540
         4.260000	    0.035067	    0.035067
         4.265000	    0.034595	    0.034595
         4.270000	    0.034126	    0.034126
         4.275000	    0.033659	    0.033659
         4.280000	    0.033194	    0.033194
         4.285000	    0.032731	    0.032731
         4.290000	    0.032271	    0.032271
         4.295000	    0.031814	    0.031814
         4.300000	    0.031357	    0.031357
         4.305000	    0.030902	    0.030902
         4.310000	    0.030449	    0.030449
         4.315000	    0.029998	    0.029998
         4.320000	    0.029549	    0.029549
         4.325000	    0.029103	    0.029103
         4.330000	    0.028660	    0.028660
         4.335000	    0.028218	    0.028218
         4.340000	    0.027779	    0.027779
         4.345000	    0.027343	    0.027343
         4.350000	    0.026908	    0.026908
         4.355000	    0.026476	    0.026476
         4.360000	    0.026045	    0.026045
         4.365000	    0.025616	    0.025616
         4.370000	    0.025189	    0.025189
         4.375000	    0.024765	    0.024765
         4.380000	    0.024343	    0.024343
         4.385000	    0.023924	    0.023924
         4.390000	    0.023507	    0.023507
         4.395000	    0.023093	    0.023093
         4.400000	    0.022681	    0.022681
         4.405000	    0.022272	    0.022272
         4.410000	    0.021865	    0.021865
         4.415000	    0.021459	    0.021459
         4.420000	    0.021055	    0.021055
         4.425000	    0.020654	    0.020654
         4.430000	    0.020255	    0.020255
         4.435000	    0.019859	    0.019859
         4.440000	    0.019465	    0.019465
         4.445000	    0.019074	    0.019074
         4.450000	    0.018685	    0.018685
         4.455000	    0.018299	    0.018299
         4.460000	    0.017916	    0.017916
         4.465000	    0.017535	    0.017535
         4.470000	    0.017156	    0.017156
         4.475000	    0.016781	    0.016781
         4.480000	    0.016408	    0.016408
         4.485000	    0.016036	    0.016036
         4.490000	    0.015666	    0.015666
         4.495000	    0.015299	    0.015299
         4.500000	    0.014934	    0.014934
         4.505000	    0.014572	    0.014572
         4.510000	    0.014213	    0.014213
         4.515000	    0.013856	    0.013856
         4.520000	    0.013501	    0.013501
         4.525000	    0.013150	    0.013150
         4.530000	    0.012801	    0.012801
         4.535000	    0.012454	    0.012454
         4.540000	    0.012111	    0.012111
         4.545000	    0.011770	    0.011770
         4.550000	    0.011431	    0.011431
         4.555000	    0.011096	    0.011096
         4.560000	    0.010763	    0.010763
         4.565000	    0.010432	    0.010432
         4.570000	    0.010103	    0.010103
         4.575000	    0.009776	    0.009776
         4.580000	    0.009451	    0.009451
         4.585000	    0.009130	    0.009130
         4.590000	    0.008811	    0.008811
         4.595000	    0.008495	    0.008495
         4.600000	    0.008181	    0.008181
         4.605000	    0.007870	    0.007870
         4.610000	    0.007561	    0.007561
         4.615000	    0.007256	    0.007256
         4.620000	    0.006952	    0.006952
         4.625000	    0.006652	    0.006652
         4.630000	    0.006354	    0.006354
         4.635000	    0.006059	    0.006059
         4.640000	    0.005767	    0.005767
         4.645000	    0.005477	    0.005477
         4.650000	    0.005190	    0.005190
         4.655000	    0.004904	    0.004904
         4.660000	    0.004621	    0.004621
         4.665000	    0.004339	    0.004339
         4.670000	    0.004061	    0.004061
         4.675000	    0.003786	    0.003786
         4.680000	    0.003512	    0.003512
         4.685000	    0.003242	    0.003242
         4.690000	    0.002974	    0.002974
         4.695000	    0.002709	    0.002709
         4.700000	    0.002447	    0.002447
         4.705000	    0.002187	    0.002187
         4.710000	    0.001930	    0.001930
         4.715000	    0.001675	    0.001675
         4.720000	    0.001423	    0.001423
         4.725000	    0.001174	    0.001174
         4.730000	    0.000926	    0.000926
         4.735000	    0.000683	    0.000683
         4.740000	    0.000449	    0.000449
         4.745000	    0.000188	    0.000188
         4.750000	    0.000040	    0.000040
         4.755000	    0.000229	    0.000229
         4.760000	    0.000512	    0.000512
         4.765000	    0.000729	    0.000729
         4.770000	    0.000952	    0.000952
         4.775000	    0.001181	    0.001181
         4.780000	    0.001403	    0.001403
         4.785000	    0.001623	    0.001623
         4.790000	    0.001841	    0.001841
         4.795000	    0.002056	    0.002056
         4.800000	    0.002268	    0.002268
         4.805000	    0.002478	    0.002478
         4.810000	    0.002685	    0.002685
         4.815000	    0.002890	    0.002890
         4.820000	    0.003093	    0.003093
         4.825000	    0.003292	    0.003292
         4.830000	    0.003490	    0.003490
         4.835000	    0.003685	    0.003685
         4.840000	    0.003877	    0.003877
         4.845000	    0.004067	    0.004067
         4.850000	    0.004254	    0.004254
         4.855000	    0.004439	    0.004439
         4.860000	    0.004621	    0.004621
         4.865000	    0.004802	    0.004802
         4.870000	    0.004979	    0.004979
         4.875000	    0.005154	    0.005154
         4.880000	    0.005327	    0.005327
         4.885000	    0.005498	    0.005498
         4.890000	    0.005666	    0.005666
         4.895000	    0.005831	    0.005831
         4.900000	    0.005995	    0.005995
         4.905000	    0.006155	    0.006155
         4.910000	    0.006314	    0.006314
         4.915000	    0.006470	    0.006470
         4.920000	    0.006624	    0.006624
         4.925000	    0.006775	    0.006775
         4.930000	    0.006925	    0.006925
         4.935000	    0.007072	    0.007072
         4.940000	    0.007216	    0.007216
         4.945000	    0.007358	    0.007358
         4.950000	    0.007498	    0.007498
         4.955000	    0.007636	    0.007636
         4.960000	    0.007771	    0.007771
         4.965000	    0.007905	    0.007905
         4.970000	    0.008036	    0.008036
         4.975000	    0.008165	    0.008165
         4.980000	    0.008293	    0.008293
         4.985000	    0.008419	    0.008419
         4.990000	    0.008543	    0.008543
         4.995000	    0.008665	    0.008665
         5.000000	    0.008785	    0.008785
         5.005000	    0.008902	    0.008902
         5.010000	    0.009017	    0.009017
         5.015000	    0.009131	    0.009131
         5.020000	    0.009242	    0.009242
         5.025000	    0.009351	    0.009351
         5.030000	    0.009458	    0.009458
         5.035000	    0.009563	    0.009563
         5.040000	    0.009665	    0.009665
         5.045000	    0.009767	    0.009767
         5.050000	    0.009865	    0.009865
         5.055000	    0.009962	    0.009962
         5.060000	    0.010057	    0.010057
         5.065000	    0.010150	    0.010150
         5.070000	    0.010240	    0.010240
         5.075000	    0.010329	    0.010329
         5.080000	    0.010416	    0.010416
         5.085000	    0.010500	    0.010500
         5.090000	    0.010583	    0.010583
         5.095000	    0.010664	    0.010664
         5.100000	    0.010743	    0.010743
         5.105000	    0.010820	    0.010820
         5.110000	    0.010896	    0.010896
         5.115000	    0.010969	    0.010969
         5.120000	    0.011040	    0.011040
         5.125000	    0.011110	    0.011110
         5.130000	    0.011178	    0.011178
         5.135000	    0.011243	    0.011243
         5.140000	    0.011305	    0.011305
         5.145000	    0.011366	    0.011366
         5.150000	    0.011425	    0.011425
         5.155000	    0.011481	    0.011481
         5.160000	    0.011537	    0.011537
         5.165000	    0.011590	    0.011590
         5.170000	    0.011642	    0.011642
         5.175000	    0.011692	    0.011692
         5.180000	    0.011741	    0.011741
         5.185000	    0.011787	    0.011787
         5.190000	    0.011832	    0.011832
         5.195000	    0.011876	    0.011876
         5.200000	    0.011918	    0.011918
         5.205000	    0.011957	    0.011957
         5.210000	    0.011996	    0.011996
         5.215000	    0.012033	    0.012033
         5.220000	    0.012068	    0.012068
         5.225000	    0.012102	    0.012102
         5.230000	    0.012134	    0.012134
         5.235000	    0.012165	    0.012165
         5.240000	    0.012194	    0.012194
         5.245000	    0.012222	    0.012222
         5.250000	    0.012247	    0.012247
         5.255000	    0.012272	    0.012272
         5.260000	    0.012295	    0.012295
         5.265000	    0.012317	    0.012317
         5.270000	    0.012337	    0.012337
         5.275000	    0.012355	    0.012355
         5.280000	    0.012373	    0.012373
         5.285000	    0.012389	    0.012389
         5.290000	    0.012403	    0.012403
         5.295000	    0.012416	    0.012416
         5.300000	    0.012428	    0.012428
         5.305000	    0.012438	    0.012438
         5.310000	    0.012447	    0.012447
         5.315000	    0.012455	    0.012455
         5.320000	    0.012461	    0.012461
         5.325000	    0.012466	    0.012466
         5.330000	    0.012470	    0.012470
         5.335000	    0.012471	    0.012471
         5.340000	    0.012470	    0.012470
         5.345000	    0.012468	    0.012468
         5.350000	    0.012465	    0.012465
         5.355000	    0.012461	    0.012461
         5.360000	    0.012455	    0.012455
         5.365000	    0.012449	    0.012449
         5.370000	    0.012441	    0.012441
         5.375000	    0.012432	    0.012432
         5.380000	    0.012422	    0.012422
         5.385000	    0.012410	    0.012410
         5.390000	    0.012397	    0.012397
         5.395000	    0.012384	    0.012384
         5.400000	    0.012369	    0.012369
         5.405000	    0.012353	    0.012353
         5.410000	    0.012336	    0.012336
         5.415000	    0.012319	    0.012319
         5.420000	    0.012299	    0.012299
         5.425000	    0.012279	    0.012279
         5.430000	    0.012258	    0.012258
         5.435000	    0.012233	    0.012233
         5.440000	    0.012208	    0.012208
         5.445000	    0.012182	    0.012182
         5.450000	    0.012155	    0.012155
         5.455000	    0.012127	    0.012127
         5.460000	    0.012098	    0.012098
         5.465000	    0.012068	    0.012068
         5.470000	    0.012037	    0.012037
         5.475000	    0.012006	    0.012006
         5.480000	    0.011973	    0.011973
         5.485000	    0.011939	    0.011939
         5.490000	    0.011905	    0.011905
         5.495000	    0.011870	    0.011870
         5.500000	    0.011833	    0.011833
         5.505000	    0.011793	    0.011793
         5.510000	    0.011754	    0.011754
         5.515000	    0.011713	    0.011713
         5.520000	    0.011671	    0.011671
         5.525000	    0.011629	    0.011629
         5.530000	    0.011586	    0.011586
         5.535000	    0.011542	    0.011542
         5.540000	    0.011498	    0.011498
         5.545000	    0.011452	    0.011452
         5.550000	    0.011406	    0.011406
         5.555000	    0.011359	    0.011359
         5.560000	    0.011311	    0.011311
         5.565000	    0.011263	    0.011263
         5.570000	    0.011213	    0.011213
         5.575000	    0.011161	    0.011161
         5.580000	    0.011109	    0.011109
         5.585000	    0.011056	    0.011056
         5.590000	    0.011002	    0.011002
         5.595000	    0.010948	    0.010948
         5.600000	    0.010892	    0.010892
         5.605000	    0.010836	    0.010836
         5.610000	    0.010780	    0.010780
         5.615000	    0.010723	    0.010723
         5.620000	    0.010665	    0.010665
         5.625000	    0.010607	    0.010607
         5.630000	    0.010546	    0.010546
         5.635000	    0.010484	    0.010484
         5.640000	    0.010422	    0.010422
         5.645000	    0.010360	    0.010360
         5.650000	    0.010297	    0.010297
         5.655000	    0.010233	    0.010233
         5.660000	    0.010169	    0.010169
         5.665000	    0.010104	    0.010104
         5.670000	    0.010037	    0.010037
         5.675000	    0.009970	    0.009970
         5.680000	    0.009902	    0.009902
         5.685000	    0.009833	    0.009833
         5.690000	    0.009763	    0.009763
         5.695000	    0.009694	    0.009694
         5.700000	    0.009623	    0.009623
         5.705000	    0.009552	    0.009552
         5.710000	    0.009481	    0.009481
         5.715000	    0.009408	    0.009408
         5.720000	    0.009333	    0.009333
         5.725000	    0.009259	    0.009259
         5.730000	    0.009184	    0.009184
         5.735000	    0.009109	    0.009109
         5.740000	    0.009033	    0.009033
         5.745000	    0.008957	    0.008957
         5.750000	    0.008880	    0.008880
         5.755000	    0.008802	    0.008802
         5.760000	    0.008723	    0.008723
         5.765000	    0.008643	    0.008643
         5.770000	    0.008563	    0.008563
         5.775000	    0.008483	    0.008483
         5.780000	    0.008402	    0.008402
         5.785000	    0.008320	    0.008320
         5.790000	    0.008239	    0.008239
         5.795000	    0.008157	    0.008157
         5.800000	    0.008073	    0.008073
         5.805000	    0.007988	    0.007988
         5.810000	    0.007904	    0.007904
         5.815000	    0.007819	    0.007819
         5.820000	    0.007733	    0.007733
         5.825000	    0.007647	    0.007647
         5.830000	    0.007559	    0.007559
         5.835000	    0.007471	    0.007471
         5.840000	    0.007383	    0.007383
         5.845000	    0.007294	    0.007294
         5.850000	    0.007205	    0.007205
         5.855000	    0.007116	    0.007116
         5.860000	    0.007027	    0.007027
         5.865000	    0.006937	    0.006937
         5.870000	    0.006845	    0.006845
         5.875000	    0.006753	    0.006753
         5.880000	    0.006661	    0.006661
         5.885000	    0.006568	    0.006568
         5.890000	    0.006476	    0.006476
         5.895000	    0.006383	    0.006383
         5.900000	    0.006287	    0.006287
         5.905000	    0.006192	    0.006192
         5.910000	    0.006097	    0.006097
         5.915000	    0.006001	    0.006001
         5.920000	    0.005905	    0.005905
         5.925000	    0.005809	    0.005809
         5.930000	    0.005711	    0.005711
         5.935000	    0.005612	    0.005612
         5.940000	    0.005514	    0.005514
         5.945000	    0.005417	    0.005417
         5.950000	    0.005318	    0.005318
         5.955000	    0.005217	    0.005217
         5.960000	    0.005117	    0.005117
         5.965000	    0.005016	    0.005016
         5.970000	    0.004915	    0.004915
         5.975000	    0.004815	    0.004815
         5.980000	    0.004714	    0.004714
         5.985000	    0.004610	    0.004610
         5.990000	    0.004508	    0.004508
         5.995000	    0.004405	    0.004405
         6.000000	    0.004301	    0.004301
         6.005000	    0.004199	    0.004199
         6.010000	    0.004095	    0.004095
         6.015000	    0.003989	    0.003989
         6.020000	    0.003884	    0.003884
         6.025000	    0.003779	    0.003779
         6.030000	    0.003675	    0.003675
         6.035000	    0.003569	    0.003569
         6.040000	    0.003462	    0.003462
         6.045000	    0.003356	    0.003356
         6.050000	    0.003248	    0.003248
         6.055000	    0.003140	    0.003140
         6.060000	    0.003032	    0.003032
         6.065000	    0.002923	    0.002923
         6.070000	    0.002814	    0.002814
         6.075000	    0.002707	    0.002707
         6.080000	    0.002597	    0.002597
         6.085000	    0.002487	    0.002487
         6.090000	    0.002377	    0.002377
         6.095000	    0.002268	    0.002268
         6.100000	    0.002158	    0.002158
         6.105000	    0.002048	    0.002048
         6.110000	    0.001938	    0.001938
         6.115000	    0.001827	    0.001827
         6.120000	    0.001716	    0.001716
         6.125000	    0.001604	    0.001604
         6.130000	    0.001491	    0.001491
         6.135000	    0.001379	    0.001379
         6.140000	    0.001268	    0.001268
         6.145000	    0.001157	    0.001157
         6.150000	    0.001044	    0.001044
         6.155000	    0.000931	    0.000931
         6.160000	    0.000819	    0.000819
         6.165000	    0.000705	    0.000705
         6.170000	    0.000591	    0.000591
         6.175000	    0.000478	    0.000478
         6.180000	    0.000366	    0.000366
         6.185000	    0.000250	    0.000250
         6.190000	    0.000136	    0.000136
         6.195000	    0.000060	    0.000060
         6.200000	    0.000076	    0.000076
         6.205000	    0.000194	    0.000194
         6.210000	    0.000319	    0.000319
         6.215000	    0.000428	    0.000428
         6.220000	    0.000542	    0.000542
         6.225000	    0.000658	    0.000658
         6.230000	    0.000772	    0.000772
         6.235000	    0.000886	    0.000886
         6.240000	    0.000999	    0.000999
         6.245000	    0.001111	    0.001111
         6.250000	    0.001225	    0.001225
         6.255000	    0.001338	    0.001338
         6.260000	    0.001451	    0.001451
         6.265000	    0.001565	    0.001565
         6.270000	    0.001678	    0.001678
         6.275000	    0.001790	    0.001790
         6.280000	    0.001904	    0.001904
         6.285000	    0.002018	    0.002018
         6.290000	    0.002130	    0.002130
         6.295000	    0.002243	    0.002243
         6.300000	    0.002356	    0.002356
         6.305000	    0.002468	    0.002468
         6.310000	    0.002580	    0.002580
         6.315000	    0.002693	    0.002693
         6.320000	    0.002804	    0.002804
         6.325000	    0.002916	    0.002916
         6.330000	    0.003027	    0.003027
         6.335000	    0.003137	    0.003137
         6.340000	    0.003246	    0.003246
         6.345000	    0.003354	    0.003354
         6.350000	    0.003463	    0.003463
         6.355000	    0.003570	    0.003570
         6.360000	    0.003676	    0.003676
         6.365000	    0.003784	    0.003784
         6.370000	    0.003890	    0.003890
         6.375000	    0.003995	    0.003995
         6.380000	    0.004100	    0.004100
         6.385000	    0.004205	    0.004205
         6.390000	    0.004308	    0.004308
         6.395000	    0.004411	    0.004411
         6.400000	    0.004514	    0.004514
         6.405000	    0.004615	    0.004615
         6.410000	    0.004716	    0.004716
         6.415000	    0.004816	    0.004816
         6.420000	    0.004916	    0.004916
         6.425000	    0.005013	    0.005013
         6.430000	    0.005111	    0.005111
         6.435000	    0.005208	    0.005208
         6.440000	    0.005303	    0.005303
         6.445000	    0.005397	    0.005397
         6.450000	    0.005492	    0.005492
         6.455000	    0.005583	    0.005583
         6.460000	    0.005675	    0.005675
         6.465000	    0.005768	    0.005768
         6.470000	    0.005858	    0.005858
         6.475000	    0.005947	    0.005947
         6.480000	    0.006036	    0.006036
         6.485000	    0.006123	    0.006123
         6.490000	    0.006208	    0.006208
         6.495000	    0.006292	    0.006292
         6.500000	    0.006375	    0.006375
         6.505000	    0.006456	    0.006456
         6.510000	    0.006535	    0.006535
         6.515000	    0.006614	    0.006614
         6.520000	    0.006690	    0.006690
         6.525000	    0.006764	    0.006764
         6.530000	    0.006839	    0.006839
         6.535000	    0.006912	    0.006912
         6.540000	    0.006983	    0.006983
         6.545000	    0.007053	    0.007053
         6.550000	    0.007121	    0.007121
         6.555000	    0.007186	    0.007186
         6.560000	    0.007250	    0.007250
         6.565000	    0.007313	    0.007313
         6.570000	    0.007372	    0.007372
         6.575000	    0.007429	    0.007429
         6.580000	    0.007486	    0.007486
         6.585000	    0.007539	    0.007539
         6.590000	    0.007591	    0.007591
         6.595000	    0.007642	    0.007642
         6.600000	    0.007691	    0.007691
         6.605000	    0.007737	    0.007737
         6.610000	    0.007780	    0.007780
         6.615000	    0.007822	    0.007822
         6.620000	    0.007863	    0.007863
         6.625000	    0.007900	    0.007900
         6.630000	    0.007936	    0.007936
         6.635000	    0.007969	    0.007969
         6.640000	    0.007998	    0.007998
         6.645000	    0.008027	    0.008027
         6.650000	    0.008054	    0.008054
         6.655000	    0.008077	    0.008077
         6.660000	    0.008098	    0.008098
         6.665000	    0.008116	    0.008116
         6.670000	    0.008131	    0.008131
         6.675000	    0.008144	    0.008144
         6.680000	    0.008156	    0.008156
         6.685000	    0.008163	    0.008163
         6.690000	    0.008167	    0.008167
         6.695000	    0.008169	    0.008169
         6.700000	    0.008168	    0.008168
         6.705000	    0.008165	    0.008165
         6.710000	    0.008158	    0.008158
         6.715000	    0.008151	    0.008151
         6.720000	    0.008139	    0.008139
         6.725000	    0.008124	    0.008124
         6.730000	    0.008108	    0.008108
         6.735000	    0.008089	    0.008089
         6.740000	    0.008065	    0.008065
         6.745000	    0.008040	    0.008040
         6.750000	    0.008010	    0.008010
         6.755000	    0.007976	    0.007976
         6.760000	    0.007942	    0.007942
         6.765000	    0.007904	    0.007904
         6.770000	    0.007862	    0.007862
         6.775000	    0.007818	    0.007818
         6.780000	    0.007771	    0.007771
         6.785000	    0.007720	    0.007720
         6.790000	    0.007667	    0.007667
         6.795000	    0.007611	    0.007611
         6.800000	    0.007552	    0.007552
         6.805000	    0.007489	    0.007489
         6.810000	    0.007424	    0.007424
         6.815000	    0.007358	    0.007358
         6.820000	    0.007288	    0.007288
         6.825000	    0.007215	    0.007215
         6.830000	    0.007141	    0.007141
         6.835000	    0.007062	    0.007062
         6.840000	    0.006979	    0.006979
         6.845000	    0.006896	    0.006896
         6.850000	    0.006808	    0.006808
         6.855000	    0.006717	    0.006717
         6.860000	    0.006624	    0.006624
         6.865000	    0.006528	    0.006528
         6.870000	    0.006429	    0.006429
         6.875000	    0.006329	    0.006329
         6.880000	    0.006226	    0.006226
         6.885000	    0.006120	    0.006120
         6.890000	    0.006010	    0.006010
         6.895000	    0.005899	    0.005899
         6.900000	    0.005787	    0.005787
         6.905000	    0.005670	    0.005670
         6.910000	    0.005553	    0.005553
         6.915000	    0.005436	    0.005436
         6.920000	    0.005313	    0.005313
         6.925000	    0.005190	    0.005190
         6.930000	    0.005067	    0.005067
         6.935000	    0.004940	    0.004940
         6.940000	    0.004811	    0.004811
         6.945000	    0.004683	    0.004683
         6.950000	    0.004552	    0.004552
         6.955000	    0.004418	    0.004418
         6.960000	    0.004286	    0.004286
         6.965000	    0.004151	    0.004151
         6.970000	    0.004014	    0.004014
         6.975000	    0.003877	    0.003877
         6.980000	    0.003739	    0.003739
         6.985000	    0.003601	    0.003601
         6.990000	    0.003462	    0.003462
         6.995000	    0.003324	    0.003324
         7.000000	    0.003186	    0.003186
         7.005000	    0.003046	    0.003046
         7.010000	    0.002909	    0.002909
         7.015000	    0.002772	    0.002772
         7.020000	    0.002633	    0.002633
         7.025000	    0.002496	    0.002496
         7.030000	    0.002362	    0.002362
         7.035000	    0.002224	    0.002224
         7.040000	    0.002090	    0.002090
         7.045000	    0.001961	    0.001961
         7.050000	    0.001829	    0.001829
         7.055000	    0.001699	    0.001699
         7.060000	    0.001574	    0.001574
         7.065000	    0.001449	    0.001449
         7.070000	    0.001326	    0.001326
         7.075000	    0.001206	    0.001206
         7.080000	    0.001090	    0.001090
         7.085000	    0.000975	    0.000975
         7.090000	    0.000863	    0.000863
         7.095000	    0.000759	    0.000759
         7.100000	    0.000657	    0.000657
         7.105000	    0.000555	    0.000555
         7.110000	    0.000466	    0.000466
         7.115000	    0.000382	    0.000382
         7.120000	    0.000296	    0.000296
         7.125000	    0.000226	    0.000226
         7.130000	    0.000164	    0.000164
         7.135000	    0.000100	    0.000100
         7.140000	    0.000057	    0.000057
         7.145000	    0.000032	    0.000032
         7.150000	    0.000009	    0.000009
         7.155000	    0.000000	    0.000000
         7.160000	    0.000001	    0.000001
         7.165000	    0.000001	    0.000001
         7.170000	    0.000000	    0.000000
         7.175000	    0.000000	    0.000000
         7.180000	    0.000000	    0.000000
         7.185000	    0.000000	    0.000000
         7.190000	    0.000000	    0.000000
         7.195000	    0.000000	    0.000000
         7.200000	    0.000000	    0.000000
         7.205000	    0.000000	    0.000000
         7.210000	    0.000000	    0.000000
         7.215000	    0.000000	    0.000000
         7.220000	    0.000000	    0.000000
         7.225000	    0.000000	    0.000000
         7.230000	    0.000000	    0.000000
         7.235000	    0.000000	    0.000000
         7.240000	    0.000000	    0.000000
         7.245000	    0.000000	    0.000000
         7.250000	    0.000000	    0.000000
         7.255000	    0.000000	    0.000000
         7.260000	    0.000000	    0.000000
         7.265000	    0.000000	    0.000000
         7.270000	    0.000000	    0.000000
         7.275000	    0.000000	    0.000000
         7.280000	    0.000000	    0.000000
         7.285000	    0.000000	    0.000000
         7.290000	    0.000000	    0.000000
         7.295000	    0.000000	    0.000000
         7.300000	    0.000000	    0.000000
         7.305000	    0.000000	    0.000000
         7.310000	    0.000000	    0.000000
         7.315000	    0.000000	    0.000000
         7.320000	    0.000000	    0.000000
         7.325000	    0.000000	    0.000000
         7.330000	    0.000000	    0.000000
         7.335000	    0.000000	    0.000000
         7.340000	    0.000000	    0.000000
         7.345000	    0.000000	    0.000000
         7.350000	    0.000000	    0.000000
         7.355000	    0.000000	    0.000000
         7.360000	    0.000000	    0.000000
         7.365000	    0.000000	    0.000000
         7.370000	    0.000000	    0.000000
         7.375000	    0.000000	    0.000000
         7.380000	    0.000000	    0.000000
         7.385000	    0.000000	    0.000000
         7.390000	    0.000000	    0.000000
         7.395000	    0.000000	    0.000000
         7.400000	    0.000000	    0.000000
         7.405000	    0.000000	    0.000000
         7.410000	    0.000000	    0.000000
         7.415000	    0.000000	    0.000000
         7.420000	    0.000000	    0.000000
         7.425000	    0.000000	    0.000000
         7.430000	    0.000000	    0.000000
         7.435000	    0.000000	    0.000000
         7.440000	    0.000000	    0.000000
         7.445000	    0.000000	    0.000000
         7.450000	    0.000000	    0.000000
         7.455000	    0.000000	    0.000000
         7.460000	    0.000000	    0.000000
         7.465000	    0.000000	    0.000000
         7.470000	    0.000000	    0.000000
         7.475000	    0.000000	    0.000000
         7.480000	    0.000000	    0.000000
         7.485000	    0.000000	    0.000000
         7.490000	    0.000000	    0.000000
         7.495000	    0.000000	    0.000000
         7.500000	    0.000000	    0.000000
         7.505000	    0.000000	    0.000000
         7.510000	    0.000000	    0.000000
         7.515000	    0.000000	    0.000000
         7.520000	    0.000000	    0.000000
         7.525000	    0.000000	    0.000000
         7.530000	    0.000000	    0.000000
         7.535000	    0.000000	    0.000000
         7.540000	    0.000000	    0.000000
         7.545000	    0.000000	    0.000000
         7.550000	    0.000000	    0.000000
         7.555000	    0.000000	    0.000000
         7.560000	    0.000000	    0.000000
         7.565000	    0.000000	    0.000000
         7.570000	    0.000000	    0.000000
         7.575000	    0.000000	    0.000000
         7.580000	    0.000000	    0.000000
         7.585000	    0.000000	    0.000000
         7.590000	    0.000000	    0.000000
         7.595000	    0.000000	    0.000000
         7.600000	    0.000000	    0.000000
         7.605000	    0.000000	    0.000000
         7.610000	    0.000000	    0.000000
         7.615000	    0.000000	    0.000000
         7.620000	    0.000000	    0.000000
         7.625000	    0.000000	    0.000000
         7.630000	    0.000000	    0.000000
         7.635000	    0.000000	    0.000000
         7.640000	    0.000000	    0.000000
         7.645000	    0.000000	    0.000000
         7.650000	    0.000000	    0.000000
         7.655000	    0.000000	    0.000000
         7.660000	    0.000000	    0.000000
         7.665000	    0.000000	    0.000000
         7.670000	    0.000000	    0.000000
         7.675000	    0.000000	    0.000000
         7.680000	    0.000000	    0.000000
         7.685000	    0.000000	    0.000000
         7.690000	    0.000000	    0.000000
         7.695000	    0.000000	    0.000000
         7.700000	    0.000000	    0.000000
         7.705000	    0.000000	    0.000000
         7.710000	    0.000000	    0.000000
         7.715000	    0.000000	    0.000000
         7.720000	    0.000000	    0.000000
         7.725000	    0.000000	    0.000000
         7.730000	    0.000000	    0.000000
         7.735000	    0.000000	    0.000000
         7.740000	    0.000000	    0.000000
         7.745000	    0.000000	    0.000000
         7.750000	    0.000000	    0.000000
         7.755000	    0.000000	    0.000000
         7.760000	    0.000000	    0.000000
         7.765000	    0.000000	    0.000000
         7.770000	    0.000000	    0.000000
         7.775000	    0.000000	    0.000000
         7.780000	    0.000000	    0.000000
         7.785000	    0.000000	    0.000000
         7.790000	    0.000000	    0.000000
         7.795000	    0.000000	    0.000000
         7.800000	    0.000000	    0.000000

