Diffraction MTF

File : C:\Users\Trisha\Documents\Zemax\SAMPLES\Navarro_Trisha_scene2retina.ZMX
Title: 
Date : 10/16/2018


Data for 0.6328 Âµm.
Surface: Image (RETINA)
Angular Frequency units are cycles per mr.
Modulation is relative to 1.0.

Field: 0.0000 (deg)
Spatial Frequency	  Tangential	    Sagittal
         0.000000	    1.000000	    1.000000
         0.002000	    0.999639	    0.999639
         0.004000	    0.999275	    0.999275
         0.006000	    0.998903	    0.998903
         0.008000	    0.998524	    0.998524
         0.010000	    0.998141	    0.998141
         0.012000	    0.997751	    0.997751
         0.014000	    0.997355	    0.997355
         0.016000	    0.996954	    0.996954
         0.018000	    0.996547	    0.996547
         0.020000	    0.996134	    0.996134
         0.022000	    0.995715	    0.995715
         0.024000	    0.995291	    0.995291
         0.026000	    0.994861	    0.994861
         0.028000	    0.994425	    0.994425
         0.030000	    0.993984	    0.993984
         0.032000	    0.993538	    0.993538
         0.034000	    0.993086	    0.993086
         0.036000	    0.992629	    0.992629
         0.038000	    0.992167	    0.992167
         0.040000	    0.991699	    0.991699
         0.042000	    0.991226	    0.991226
         0.044000	    0.990747	    0.990747
         0.046000	    0.990264	    0.990264
         0.048000	    0.989775	    0.989775
         0.050000	    0.989282	    0.989282
         0.052000	    0.988783	    0.988783
         0.054000	    0.988279	    0.988279
         0.056000	    0.987771	    0.987771
         0.058000	    0.987257	    0.987257
         0.060000	    0.986739	    0.986739
         0.062000	    0.986215	    0.986215
         0.064000	    0.985687	    0.985687
         0.066000	    0.985154	    0.985154
         0.068000	    0.984617	    0.984617
         0.070000	    0.984075	    0.984075
         0.072000	    0.983528	    0.983528
         0.074000	    0.982976	    0.982976
         0.076000	    0.982420	    0.982420
         0.078000	    0.981859	    0.981859
         0.080000	    0.981294	    0.981294
         0.082000	    0.980725	    0.980725
         0.084000	    0.980151	    0.980151
         0.086000	    0.979572	    0.979572
         0.088000	    0.978990	    0.978990
         0.090000	    0.978403	    0.978403
         0.092000	    0.977811	    0.977811
         0.094000	    0.977216	    0.977216
         0.096000	    0.976616	    0.976616
         0.098000	    0.976012	    0.976012
         0.100000	    0.975404	    0.975404
         0.102000	    0.974792	    0.974792
         0.104000	    0.974176	    0.974176
         0.106000	    0.973555	    0.973555
         0.108000	    0.972931	    0.972931
         0.110000	    0.972303	    0.972303
         0.112000	    0.971671	    0.971671
         0.114000	    0.971035	    0.971035
         0.116000	    0.970395	    0.970395
         0.118000	    0.969751	    0.969751
         0.120000	    0.969104	    0.969104
         0.122000	    0.968453	    0.968453
         0.124000	    0.967798	    0.967798
         0.126000	    0.967139	    0.967139
         0.128000	    0.966476	    0.966476
         0.130000	    0.965810	    0.965810
         0.132000	    0.965141	    0.965141
         0.134000	    0.964468	    0.964468
         0.136000	    0.963791	    0.963791
         0.138000	    0.963111	    0.963111
         0.140000	    0.962427	    0.962427
         0.142000	    0.961740	    0.961740
         0.144000	    0.961049	    0.961049
         0.146000	    0.960355	    0.960355
         0.148000	    0.959658	    0.959658
         0.150000	    0.958957	    0.958957
         0.152000	    0.958253	    0.958253
         0.154000	    0.957546	    0.957546
         0.156000	    0.956835	    0.956835
         0.158000	    0.956122	    0.956122
         0.160000	    0.955405	    0.955405
         0.162000	    0.954685	    0.954685
         0.164000	    0.953961	    0.953961
         0.166000	    0.953235	    0.953235
         0.168000	    0.952506	    0.952506
         0.170000	    0.951773	    0.951773
         0.172000	    0.951038	    0.951038
         0.174000	    0.950299	    0.950299
         0.176000	    0.949557	    0.949557
         0.178000	    0.948813	    0.948813
         0.180000	    0.948066	    0.948066
         0.182000	    0.947315	    0.947315
         0.184000	    0.946562	    0.946562
         0.186000	    0.945806	    0.945806
         0.188000	    0.945047	    0.945047
         0.190000	    0.944286	    0.944286
         0.192000	    0.943521	    0.943521
         0.194000	    0.942754	    0.942754
         0.196000	    0.941984	    0.941984
         0.198000	    0.941212	    0.941212
         0.200000	    0.940436	    0.940436
         0.202000	    0.939658	    0.939658
         0.204000	    0.938878	    0.938878
         0.206000	    0.938095	    0.938095
         0.208000	    0.937309	    0.937309
         0.210000	    0.936521	    0.936521
         0.212000	    0.935730	    0.935730
         0.214000	    0.934936	    0.934936
         0.216000	    0.934140	    0.934140
         0.218000	    0.933342	    0.933342
         0.220000	    0.932541	    0.932541
         0.222000	    0.931738	    0.931738
         0.224000	    0.930932	    0.930932
         0.226000	    0.930124	    0.930124
         0.228000	    0.929314	    0.929314
         0.230000	    0.928501	    0.928501
         0.232000	    0.927686	    0.927686
         0.234000	    0.926868	    0.926868
         0.236000	    0.926049	    0.926049
         0.238000	    0.925227	    0.925227
         0.240000	    0.924403	    0.924403
         0.242000	    0.923576	    0.923576
         0.244000	    0.922747	    0.922747
         0.246000	    0.921917	    0.921917
         0.248000	    0.921084	    0.921084
         0.250000	    0.920248	    0.920248
         0.252000	    0.919411	    0.919411
         0.254000	    0.918572	    0.918572
         0.256000	    0.917730	    0.917730
         0.258000	    0.916887	    0.916887
         0.260000	    0.916041	    0.916041
         0.262000	    0.915193	    0.915193
         0.264000	    0.914344	    0.914344
         0.266000	    0.913492	    0.913492
         0.268000	    0.912639	    0.912639
         0.270000	    0.911784	    0.911784
         0.272000	    0.910927	    0.910927
         0.274000	    0.910067	    0.910067
         0.276000	    0.909206	    0.909206
         0.278000	    0.908343	    0.908343
         0.280000	    0.907478	    0.907478
         0.282000	    0.906612	    0.906612
         0.284000	    0.905743	    0.905743
         0.286000	    0.904873	    0.904873
         0.288000	    0.904000	    0.904000
         0.290000	    0.903126	    0.903126
         0.292000	    0.902251	    0.902251
         0.294000	    0.901373	    0.901373
         0.296000	    0.900494	    0.900494
         0.298000	    0.899613	    0.899613
         0.300000	    0.898730	    0.898730
         0.302000	    0.897845	    0.897845
         0.304000	    0.896959	    0.896959
         0.306000	    0.896071	    0.896071
         0.308000	    0.895182	    0.895182
         0.310000	    0.894290	    0.894290
         0.312000	    0.893398	    0.893398
         0.314000	    0.892503	    0.892503
         0.316000	    0.891607	    0.891607
         0.318000	    0.890710	    0.890710
         0.320000	    0.889810	    0.889810
         0.322000	    0.888910	    0.888910
         0.324000	    0.888007	    0.888007
         0.326000	    0.887103	    0.887103
         0.328000	    0.886198	    0.886198
         0.330000	    0.885291	    0.885291
         0.332000	    0.884383	    0.884383
         0.334000	    0.883473	    0.883473
         0.336000	    0.882562	    0.882562
         0.338000	    0.881649	    0.881649
         0.340000	    0.880735	    0.880735
         0.342000	    0.879819	    0.879819
         0.344000	    0.878902	    0.878902
         0.346000	    0.877983	    0.877983
         0.348000	    0.877063	    0.877063
         0.350000	    0.876142	    0.876142
         0.352000	    0.875220	    0.875220
         0.354000	    0.874296	    0.874296
         0.356000	    0.873370	    0.873370
         0.358000	    0.872444	    0.872444
         0.360000	    0.871516	    0.871516
         0.362000	    0.870586	    0.870586
         0.364000	    0.869656	    0.869656
         0.366000	    0.868724	    0.868724
         0.368000	    0.867791	    0.867791
         0.370000	    0.866856	    0.866856
         0.372000	    0.865921	    0.865921
         0.374000	    0.864984	    0.864984
         0.376000	    0.864046	    0.864046
         0.378000	    0.863107	    0.863107
         0.380000	    0.862166	    0.862166
         0.382000	    0.861224	    0.861224
         0.384000	    0.860281	    0.860281
         0.386000	    0.859337	    0.859337
         0.388000	    0.858392	    0.858392
         0.390000	    0.857446	    0.857446
         0.392000	    0.856498	    0.856498
         0.394000	    0.855550	    0.855550
         0.396000	    0.854600	    0.854600
         0.398000	    0.853649	    0.853649
         0.400000	    0.852697	    0.852697
         0.402000	    0.851744	    0.851744
         0.404000	    0.850790	    0.850790
         0.406000	    0.849834	    0.849834
         0.408000	    0.848878	    0.848878
         0.410000	    0.847921	    0.847921
         0.412000	    0.846962	    0.846962
         0.414000	    0.846003	    0.846003
         0.416000	    0.845043	    0.845043
         0.418000	    0.844082	    0.844082
         0.420000	    0.843120	    0.843120
         0.422000	    0.842157	    0.842157
         0.424000	    0.841193	    0.841193
         0.426000	    0.840228	    0.840228
         0.428000	    0.839262	    0.839262
         0.430000	    0.838295	    0.838295
         0.432000	    0.837327	    0.837327
         0.434000	    0.836358	    0.836358
         0.436000	    0.835388	    0.835388
         0.438000	    0.834418	    0.834418
         0.440000	    0.833446	    0.833446
         0.442000	    0.832473	    0.832473
         0.444000	    0.831500	    0.831500
         0.446000	    0.830526	    0.830526
         0.448000	    0.829550	    0.829550
         0.450000	    0.828574	    0.828574
         0.452000	    0.827597	    0.827597
         0.454000	    0.826620	    0.826620
         0.456000	    0.825641	    0.825641
         0.458000	    0.824661	    0.824661
         0.460000	    0.823681	    0.823681
         0.462000	    0.822700	    0.822700
         0.464000	    0.821718	    0.821718
         0.466000	    0.820735	    0.820735
         0.468000	    0.819752	    0.819752
         0.470000	    0.818767	    0.818767
         0.472000	    0.817782	    0.817782
         0.474000	    0.816796	    0.816796
         0.476000	    0.815810	    0.815810
         0.478000	    0.814822	    0.814822
         0.480000	    0.813834	    0.813834
         0.482000	    0.812845	    0.812845
         0.484000	    0.811856	    0.811856
         0.486000	    0.810865	    0.810865
         0.488000	    0.809874	    0.809874
         0.490000	    0.808882	    0.808882
         0.492000	    0.807890	    0.807890
         0.494000	    0.806897	    0.806897
         0.496000	    0.805903	    0.805903
         0.498000	    0.804908	    0.804908
         0.500000	    0.803913	    0.803913
         0.502000	    0.802917	    0.802917
         0.504000	    0.801920	    0.801920
         0.506000	    0.800923	    0.800923
         0.508000	    0.799925	    0.799925
         0.510000	    0.798926	    0.798926
         0.512000	    0.797927	    0.797927
         0.514000	    0.796927	    0.796927
         0.516000	    0.795927	    0.795927
         0.518000	    0.794926	    0.794926
         0.520000	    0.793925	    0.793925
         0.522000	    0.792923	    0.792923
         0.524000	    0.791920	    0.791920
         0.526000	    0.790917	    0.790917
         0.528000	    0.789913	    0.789913
         0.530000	    0.788909	    0.788909
         0.532000	    0.787904	    0.787904
         0.534000	    0.786899	    0.786899
         0.536000	    0.785893	    0.785893
         0.538000	    0.784887	    0.784887
         0.540000	    0.783880	    0.783880
         0.542000	    0.782872	    0.782872
         0.544000	    0.781864	    0.781864
         0.546000	    0.780855	    0.780855
         0.548000	    0.779846	    0.779846
         0.550000	    0.778836	    0.778836
         0.552000	    0.777826	    0.777826
         0.554000	    0.776816	    0.776816
         0.556000	    0.775804	    0.775804
         0.558000	    0.774793	    0.774793
         0.560000	    0.773781	    0.773781
         0.562000	    0.772768	    0.772768
         0.564000	    0.771755	    0.771755
         0.566000	    0.770742	    0.770742
         0.568000	    0.769728	    0.769728
         0.570000	    0.768713	    0.768713
         0.572000	    0.767698	    0.767698
         0.574000	    0.766683	    0.766683
         0.576000	    0.765667	    0.765667
         0.578000	    0.764651	    0.764651
         0.580000	    0.763635	    0.763635
         0.582000	    0.762618	    0.762618
         0.584000	    0.761600	    0.761600
         0.586000	    0.760582	    0.760582
         0.588000	    0.759564	    0.759564
         0.590000	    0.758546	    0.758546
         0.592000	    0.757527	    0.757527
         0.594000	    0.756507	    0.756507
         0.596000	    0.755488	    0.755488
         0.598000	    0.754467	    0.754467
         0.600000	    0.753447	    0.753447
         0.602000	    0.752426	    0.752426
         0.604000	    0.751405	    0.751405
         0.606000	    0.750383	    0.750383
         0.608000	    0.749362	    0.749362
         0.610000	    0.748340	    0.748340
         0.612000	    0.747317	    0.747317
         0.614000	    0.746295	    0.746295
         0.616000	    0.745272	    0.745272
         0.618000	    0.744249	    0.744249
         0.620000	    0.743226	    0.743226
         0.622000	    0.742202	    0.742202
         0.624000	    0.741178	    0.741178
         0.626000	    0.740154	    0.740154
         0.628000	    0.739129	    0.739129
         0.630000	    0.738104	    0.738104
         0.632000	    0.737079	    0.737079
         0.634000	    0.736054	    0.736054
         0.636000	    0.735028	    0.735028
         0.638000	    0.734002	    0.734002
         0.640000	    0.732976	    0.732976
         0.642000	    0.731949	    0.731949
         0.644000	    0.730923	    0.730923
         0.646000	    0.729896	    0.729896
         0.648000	    0.728869	    0.728869
         0.650000	    0.727841	    0.727841
         0.652000	    0.726814	    0.726814
         0.654000	    0.725786	    0.725786
         0.656000	    0.724758	    0.724758
         0.658000	    0.723729	    0.723729
         0.660000	    0.722701	    0.722701
         0.662000	    0.721672	    0.721672
         0.664000	    0.720643	    0.720643
         0.666000	    0.719614	    0.719614
         0.668000	    0.718585	    0.718585
         0.670000	    0.717556	    0.717556
         0.672000	    0.716526	    0.716526
         0.674000	    0.715497	    0.715497
         0.676000	    0.714467	    0.714467
         0.678000	    0.713437	    0.713437
         0.680000	    0.712407	    0.712407
         0.682000	    0.711376	    0.711376
         0.684000	    0.710346	    0.710346
         0.686000	    0.709315	    0.709315
         0.688000	    0.708285	    0.708285
         0.690000	    0.707254	    0.707254
         0.692000	    0.706224	    0.706224
         0.694000	    0.705193	    0.705193
         0.696000	    0.704162	    0.704162
         0.698000	    0.703131	    0.703131
         0.700000	    0.702100	    0.702100
         0.702000	    0.701069	    0.701069
         0.704000	    0.700038	    0.700038
         0.706000	    0.699006	    0.699006
         0.708000	    0.697975	    0.697975
         0.710000	    0.696943	    0.696943
         0.712000	    0.695912	    0.695912
         0.714000	    0.694880	    0.694880
         0.716000	    0.693848	    0.693848
         0.718000	    0.692817	    0.692817
         0.720000	    0.691785	    0.691785
         0.722000	    0.690753	    0.690753
         0.724000	    0.689721	    0.689721
         0.726000	    0.688689	    0.688689
         0.728000	    0.687657	    0.687657
         0.730000	    0.686625	    0.686625
         0.732000	    0.685593	    0.685593
         0.734000	    0.684561	    0.684561
         0.736000	    0.683529	    0.683529
         0.738000	    0.682497	    0.682497
         0.740000	    0.681465	    0.681465
         0.742000	    0.680433	    0.680433
         0.744000	    0.679401	    0.679401
         0.746000	    0.678368	    0.678368
         0.748000	    0.677336	    0.677336
         0.750000	    0.676304	    0.676304
         0.752000	    0.675272	    0.675272
         0.754000	    0.674240	    0.674240
         0.756000	    0.673208	    0.673208
         0.758000	    0.672177	    0.672177
         0.760000	    0.671145	    0.671145
         0.762000	    0.670113	    0.670113
         0.764000	    0.669082	    0.669082
         0.766000	    0.668051	    0.668051
         0.768000	    0.667019	    0.667019
         0.770000	    0.665988	    0.665988
         0.772000	    0.664957	    0.664957
         0.774000	    0.663926	    0.663926
         0.776000	    0.662895	    0.662895
         0.778000	    0.661864	    0.661864
         0.780000	    0.660833	    0.660833
         0.782000	    0.659802	    0.659802
         0.784000	    0.658771	    0.658771
         0.786000	    0.657740	    0.657740
         0.788000	    0.656710	    0.656710
         0.790000	    0.655680	    0.655680
         0.792000	    0.654649	    0.654649
         0.794000	    0.653619	    0.653619
         0.796000	    0.652589	    0.652589
         0.798000	    0.651559	    0.651559
         0.800000	    0.650529	    0.650529
         0.802000	    0.649500	    0.649500
         0.804000	    0.648470	    0.648470
         0.806000	    0.647441	    0.647441
         0.808000	    0.646411	    0.646411
         0.810000	    0.645382	    0.645382
         0.812000	    0.644353	    0.644353
         0.814000	    0.643325	    0.643325
         0.816000	    0.642296	    0.642296
         0.818000	    0.641267	    0.641267
         0.820000	    0.640239	    0.640239
         0.822000	    0.639211	    0.639211
         0.824000	    0.638184	    0.638184
         0.826000	    0.637156	    0.637156
         0.828000	    0.636129	    0.636129
         0.830000	    0.635102	    0.635102
         0.832000	    0.634075	    0.634075
         0.834000	    0.633049	    0.633049
         0.836000	    0.632022	    0.632022
         0.838000	    0.630996	    0.630996
         0.840000	    0.629970	    0.629970
         0.842000	    0.628945	    0.628945
         0.844000	    0.627919	    0.627919
         0.846000	    0.626894	    0.626894
         0.848000	    0.625869	    0.625869
         0.850000	    0.624844	    0.624844
         0.852000	    0.623819	    0.623819
         0.854000	    0.622795	    0.622795
         0.856000	    0.621771	    0.621771
         0.858000	    0.620747	    0.620747
         0.860000	    0.619723	    0.619723
         0.862000	    0.618700	    0.618700
         0.864000	    0.617677	    0.617677
         0.866000	    0.616654	    0.616654
         0.868000	    0.615632	    0.615632
         0.870000	    0.614609	    0.614609
         0.872000	    0.613587	    0.613587
         0.874000	    0.612566	    0.612566
         0.876000	    0.611544	    0.611544
         0.878000	    0.610524	    0.610524
         0.880000	    0.609503	    0.609503
         0.882000	    0.608483	    0.608483
         0.884000	    0.607463	    0.607463
         0.886000	    0.606444	    0.606444
         0.888000	    0.605424	    0.605424
         0.890000	    0.604406	    0.604406
         0.892000	    0.603387	    0.603387
         0.894000	    0.602369	    0.602369
         0.896000	    0.601351	    0.601351
         0.898000	    0.600333	    0.600333
         0.900000	    0.599316	    0.599316
         0.902000	    0.598299	    0.598299
         0.904000	    0.597283	    0.597283
         0.906000	    0.596267	    0.596267
         0.908000	    0.595251	    0.595251
         0.910000	    0.594235	    0.594235
         0.912000	    0.593220	    0.593220
         0.914000	    0.592205	    0.592205
         0.916000	    0.591191	    0.591191
         0.918000	    0.590177	    0.590177
         0.920000	    0.589163	    0.589163
         0.922000	    0.588150	    0.588150
         0.924000	    0.587137	    0.587137
         0.926000	    0.586125	    0.586125
         0.928000	    0.585113	    0.585113
         0.930000	    0.584101	    0.584101
         0.932000	    0.583090	    0.583090
         0.934000	    0.582079	    0.582079
         0.936000	    0.581069	    0.581069
         0.938000	    0.580059	    0.580059
         0.940000	    0.579050	    0.579050
         0.942000	    0.578041	    0.578041
         0.944000	    0.577033	    0.577033
         0.946000	    0.576025	    0.576025
         0.948000	    0.575017	    0.575017
         0.950000	    0.574010	    0.574010
         0.952000	    0.573003	    0.573003
         0.954000	    0.571997	    0.571997
         0.956000	    0.570991	    0.570991
         0.958000	    0.569986	    0.569986
         0.960000	    0.568981	    0.568981
         0.962000	    0.567976	    0.567976
         0.964000	    0.566972	    0.566972
         0.966000	    0.565969	    0.565969
         0.968000	    0.564966	    0.564966
         0.970000	    0.563963	    0.563963
         0.972000	    0.562961	    0.562961
         0.974000	    0.561960	    0.561960
         0.976000	    0.560959	    0.560959
         0.978000	    0.559958	    0.559958
         0.980000	    0.558958	    0.558958
         0.982000	    0.557958	    0.557958
         0.984000	    0.556959	    0.556959
         0.986000	    0.555961	    0.555961
         0.988000	    0.554963	    0.554963
         0.990000	    0.553966	    0.553966
         0.992000	    0.552969	    0.552969
         0.994000	    0.551973	    0.551973
         0.996000	    0.550977	    0.550977
         0.998000	    0.549982	    0.549982
         1.000000	    0.548987	    0.548987
         1.002000	    0.547993	    0.547993
         1.004000	    0.546999	    0.546999
         1.006000	    0.546006	    0.546006
         1.008000	    0.545014	    0.545014
         1.010000	    0.544022	    0.544022
         1.012000	    0.543030	    0.543030
         1.014000	    0.542039	    0.542039
         1.016000	    0.541049	    0.541049
         1.018000	    0.540059	    0.540059
         1.020000	    0.539070	    0.539070
         1.022000	    0.538081	    0.538081
         1.024000	    0.537093	    0.537093
         1.026000	    0.536106	    0.536106
         1.028000	    0.535119	    0.535119
         1.030000	    0.534132	    0.534132
         1.032000	    0.533146	    0.533146
         1.034000	    0.532162	    0.532162
         1.036000	    0.531177	    0.531177
         1.038000	    0.530194	    0.530194
         1.040000	    0.529211	    0.529211
         1.042000	    0.528228	    0.528228
         1.044000	    0.527246	    0.527246
         1.046000	    0.526265	    0.526265
         1.048000	    0.525284	    0.525284
         1.050000	    0.524304	    0.524304
         1.052000	    0.523325	    0.523325
         1.054000	    0.522346	    0.522346
         1.056000	    0.521368	    0.521368
         1.058000	    0.520390	    0.520390
         1.060000	    0.519413	    0.519413
         1.062000	    0.518437	    0.518437
         1.064000	    0.517461	    0.517461
         1.066000	    0.516486	    0.516486
         1.068000	    0.515512	    0.515512
         1.070000	    0.514538	    0.514538
         1.072000	    0.513565	    0.513565
         1.074000	    0.512593	    0.512593
         1.076000	    0.511621	    0.511621
         1.078000	    0.510650	    0.510650
         1.080000	    0.509679	    0.509679
         1.082000	    0.508710	    0.508710
         1.084000	    0.507741	    0.507741
         1.086000	    0.506773	    0.506773
         1.088000	    0.505806	    0.505806
         1.090000	    0.504839	    0.504839
         1.092000	    0.503873	    0.503873
         1.094000	    0.502907	    0.502907
         1.096000	    0.501943	    0.501943
         1.098000	    0.500979	    0.500979
         1.100000	    0.500015	    0.500015
         1.102000	    0.499053	    0.499053
         1.104000	    0.498091	    0.498091
         1.106000	    0.497130	    0.497130
         1.108000	    0.496169	    0.496169
         1.110000	    0.495209	    0.495209
         1.112000	    0.494250	    0.494250
         1.114000	    0.493292	    0.493292
         1.116000	    0.492334	    0.492334
         1.118000	    0.491377	    0.491377
         1.120000	    0.490421	    0.490421
         1.122000	    0.489465	    0.489465
         1.124000	    0.488511	    0.488511
         1.126000	    0.487557	    0.487557
         1.128000	    0.486604	    0.486604
         1.130000	    0.485652	    0.485652
         1.132000	    0.484700	    0.484700
         1.134000	    0.483750	    0.483750
         1.136000	    0.482800	    0.482800
         1.138000	    0.481850	    0.481850
         1.140000	    0.480902	    0.480902
         1.142000	    0.479954	    0.479954
         1.144000	    0.479007	    0.479007
         1.146000	    0.478061	    0.478061
         1.148000	    0.477116	    0.477116
         1.150000	    0.476171	    0.476171
         1.152000	    0.475227	    0.475227
         1.154000	    0.474284	    0.474284
         1.156000	    0.473341	    0.473341
         1.158000	    0.472400	    0.472400
         1.160000	    0.471459	    0.471459
         1.162000	    0.470519	    0.470519
         1.164000	    0.469580	    0.469580
         1.166000	    0.468641	    0.468641
         1.168000	    0.467704	    0.467704
         1.170000	    0.466767	    0.466767
         1.172000	    0.465831	    0.465831
         1.174000	    0.464896	    0.464896
         1.176000	    0.463962	    0.463962
         1.178000	    0.463028	    0.463028
         1.180000	    0.462096	    0.462096
         1.182000	    0.461164	    0.461164
         1.184000	    0.460233	    0.460233
         1.186000	    0.459303	    0.459303
         1.188000	    0.458374	    0.458374
         1.190000	    0.457445	    0.457445
         1.192000	    0.456518	    0.456518
         1.194000	    0.455591	    0.455591
         1.196000	    0.454665	    0.454665
         1.198000	    0.453740	    0.453740
         1.200000	    0.452816	    0.452816
         1.202000	    0.451892	    0.451892
         1.204000	    0.450969	    0.450969
         1.206000	    0.450048	    0.450048
         1.208000	    0.449127	    0.449127
         1.210000	    0.448207	    0.448207
         1.212000	    0.447288	    0.447288
         1.214000	    0.446370	    0.446370
         1.216000	    0.445453	    0.445453
         1.218000	    0.444537	    0.444537
         1.220000	    0.443621	    0.443621
         1.222000	    0.442707	    0.442707
         1.224000	    0.441793	    0.441793
         1.226000	    0.440880	    0.440880
         1.228000	    0.439968	    0.439968
         1.230000	    0.439057	    0.439057
         1.232000	    0.438146	    0.438146
         1.234000	    0.437237	    0.437237
         1.236000	    0.436329	    0.436329
         1.238000	    0.435421	    0.435421
         1.240000	    0.434514	    0.434514
         1.242000	    0.433608	    0.433608
         1.244000	    0.432703	    0.432703
         1.246000	    0.431799	    0.431799
         1.248000	    0.430896	    0.430896
         1.250000	    0.429994	    0.429994
         1.252000	    0.429093	    0.429093
         1.254000	    0.428192	    0.428192
         1.256000	    0.427293	    0.427293
         1.258000	    0.426395	    0.426395
         1.260000	    0.425497	    0.425497
         1.262000	    0.424601	    0.424601
         1.264000	    0.423705	    0.423705
         1.266000	    0.422810	    0.422810
         1.268000	    0.421917	    0.421917
         1.270000	    0.421024	    0.421024
         1.272000	    0.420132	    0.420132
         1.274000	    0.419241	    0.419241
         1.276000	    0.418351	    0.418351
         1.278000	    0.417461	    0.417461
         1.280000	    0.416573	    0.416573
         1.282000	    0.415686	    0.415686
         1.284000	    0.414799	    0.414799
         1.286000	    0.413914	    0.413914
         1.288000	    0.413029	    0.413029
         1.290000	    0.412146	    0.412146
         1.292000	    0.411263	    0.411263
         1.294000	    0.410382	    0.410382
         1.296000	    0.409501	    0.409501
         1.298000	    0.408622	    0.408622
         1.300000	    0.407743	    0.407743
         1.302000	    0.406866	    0.406866
         1.304000	    0.405989	    0.405989
         1.306000	    0.405113	    0.405113
         1.308000	    0.404239	    0.404239
         1.310000	    0.403365	    0.403365
         1.312000	    0.402492	    0.402492
         1.314000	    0.401620	    0.401620
         1.316000	    0.400749	    0.400749
         1.318000	    0.399880	    0.399880
         1.320000	    0.399011	    0.399011
         1.322000	    0.398143	    0.398143
         1.324000	    0.397276	    0.397276
         1.326000	    0.396410	    0.396410
         1.328000	    0.395545	    0.395545
         1.330000	    0.394681	    0.394681
         1.332000	    0.393818	    0.393818
         1.334000	    0.392957	    0.392957
         1.336000	    0.392096	    0.392096
         1.338000	    0.391236	    0.391236
         1.340000	    0.390377	    0.390377
         1.342000	    0.389519	    0.389519
         1.344000	    0.388663	    0.388663
         1.346000	    0.387807	    0.387807
         1.348000	    0.386952	    0.386952
         1.350000	    0.386098	    0.386098
         1.352000	    0.385245	    0.385245
         1.354000	    0.384394	    0.384394
         1.356000	    0.383543	    0.383543
         1.358000	    0.382693	    0.382693
         1.360000	    0.381844	    0.381844
         1.362000	    0.380996	    0.380996
         1.364000	    0.380150	    0.380150
         1.366000	    0.379305	    0.379305
         1.368000	    0.378460	    0.378460
         1.370000	    0.377617	    0.377617
         1.372000	    0.376774	    0.376774
         1.374000	    0.375933	    0.375933
         1.376000	    0.375093	    0.375093
         1.378000	    0.374253	    0.374253
         1.380000	    0.373415	    0.373415
         1.382000	    0.372578	    0.372578
         1.384000	    0.371742	    0.371742
         1.386000	    0.370906	    0.370906
         1.388000	    0.370072	    0.370072
         1.390000	    0.369239	    0.369239
         1.392000	    0.368407	    0.368407
         1.394000	    0.367576	    0.367576
         1.396000	    0.366746	    0.366746
         1.398000	    0.365917	    0.365917
         1.400000	    0.365089	    0.365089
         1.402000	    0.364263	    0.364263
         1.404000	    0.363437	    0.363437
         1.406000	    0.362613	    0.362613
         1.408000	    0.361789	    0.361789
         1.410000	    0.360967	    0.360967
         1.412000	    0.360146	    0.360146
         1.414000	    0.359325	    0.359325
         1.416000	    0.358506	    0.358506
         1.418000	    0.357688	    0.357688
         1.420000	    0.356871	    0.356871
         1.422000	    0.356055	    0.356055
         1.424000	    0.355240	    0.355240
         1.426000	    0.354426	    0.354426
         1.428000	    0.353613	    0.353613
         1.430000	    0.352801	    0.352801
         1.432000	    0.351990	    0.351990
         1.434000	    0.351181	    0.351181
         1.436000	    0.350373	    0.350373
         1.438000	    0.349566	    0.349566
         1.440000	    0.348759	    0.348759
         1.442000	    0.347954	    0.347954
         1.444000	    0.347150	    0.347150
         1.446000	    0.346348	    0.346348
         1.448000	    0.345546	    0.345546
         1.450000	    0.344745	    0.344745
         1.452000	    0.343945	    0.343945
         1.454000	    0.343147	    0.343147
         1.456000	    0.342349	    0.342349
         1.458000	    0.341553	    0.341553
         1.460000	    0.340758	    0.340758
         1.462000	    0.339963	    0.339963
         1.464000	    0.339170	    0.339170
         1.466000	    0.338378	    0.338378
         1.468000	    0.337587	    0.337587
         1.470000	    0.336797	    0.336797
         1.472000	    0.336009	    0.336009
         1.474000	    0.335222	    0.335222
         1.476000	    0.334435	    0.334435
         1.478000	    0.333650	    0.333650
         1.480000	    0.332866	    0.332866
         1.482000	    0.332083	    0.332083
         1.484000	    0.331301	    0.331301
         1.486000	    0.330521	    0.330521
         1.488000	    0.329741	    0.329741
         1.490000	    0.328962	    0.328962
         1.492000	    0.328185	    0.328185
         1.494000	    0.327409	    0.327409
         1.496000	    0.326633	    0.326633
         1.498000	    0.325859	    0.325859
         1.500000	    0.325086	    0.325086
         1.502000	    0.324314	    0.324314
         1.504000	    0.323544	    0.323544
         1.506000	    0.322774	    0.322774
         1.508000	    0.322006	    0.322006
         1.510000	    0.321239	    0.321239
         1.512000	    0.320473	    0.320473
         1.514000	    0.319708	    0.319708
         1.516000	    0.318945	    0.318945
         1.518000	    0.318182	    0.318182
         1.520000	    0.317420	    0.317420
         1.522000	    0.316660	    0.316660
         1.524000	    0.315901	    0.315901
         1.526000	    0.315143	    0.315143
         1.528000	    0.314386	    0.314386
         1.530000	    0.313630	    0.313630
         1.532000	    0.312875	    0.312875
         1.534000	    0.312122	    0.312122
         1.536000	    0.311370	    0.311370
         1.538000	    0.310619	    0.310619
         1.540000	    0.309869	    0.309869
         1.542000	    0.309120	    0.309120
         1.544000	    0.308373	    0.308373
         1.546000	    0.307626	    0.307626
         1.548000	    0.306881	    0.306881
         1.550000	    0.306137	    0.306137
         1.552000	    0.305394	    0.305394
         1.554000	    0.304652	    0.304652
         1.556000	    0.303911	    0.303911
         1.558000	    0.303171	    0.303171
         1.560000	    0.302433	    0.302433
         1.562000	    0.301695	    0.301695
         1.564000	    0.300959	    0.300959
         1.566000	    0.300224	    0.300224
         1.568000	    0.299491	    0.299491
         1.570000	    0.298758	    0.298758
         1.572000	    0.298027	    0.298027
         1.574000	    0.297297	    0.297297
         1.576000	    0.296568	    0.296568
         1.578000	    0.295840	    0.295840
         1.580000	    0.295113	    0.295113
         1.582000	    0.294388	    0.294388
         1.584000	    0.293663	    0.293663
         1.586000	    0.292940	    0.292940
         1.588000	    0.292218	    0.292218
         1.590000	    0.291497	    0.291497
         1.592000	    0.290778	    0.290778
         1.594000	    0.290059	    0.290059
         1.596000	    0.289342	    0.289342
         1.598000	    0.288626	    0.288626
         1.600000	    0.287911	    0.287911
         1.602000	    0.287198	    0.287198
         1.604000	    0.286485	    0.286485
         1.606000	    0.285774	    0.285774
         1.608000	    0.285064	    0.285064
         1.610000	    0.284355	    0.284355
         1.612000	    0.283647	    0.283647
         1.614000	    0.282940	    0.282940
         1.616000	    0.282235	    0.282235
         1.618000	    0.281531	    0.281531
         1.620000	    0.280828	    0.280828
         1.622000	    0.280126	    0.280126
         1.624000	    0.279425	    0.279425
         1.626000	    0.278725	    0.278725
         1.628000	    0.278027	    0.278027
         1.630000	    0.277330	    0.277330
         1.632000	    0.276634	    0.276634
         1.634000	    0.275939	    0.275939
         1.636000	    0.275246	    0.275246
         1.638000	    0.274554	    0.274554
         1.640000	    0.273863	    0.273863
         1.642000	    0.273173	    0.273173
         1.644000	    0.272484	    0.272484
         1.646000	    0.271797	    0.271797
         1.648000	    0.271110	    0.271110
         1.650000	    0.270425	    0.270425
         1.652000	    0.269741	    0.269741
         1.654000	    0.269058	    0.269058
         1.656000	    0.268377	    0.268377
         1.658000	    0.267696	    0.267696
         1.660000	    0.267017	    0.267017
         1.662000	    0.266340	    0.266340
         1.664000	    0.265663	    0.265663
         1.666000	    0.264988	    0.264988
         1.668000	    0.264314	    0.264314
         1.670000	    0.263641	    0.263641
         1.672000	    0.262969	    0.262969
         1.674000	    0.262298	    0.262298
         1.676000	    0.261629	    0.261629
         1.678000	    0.260960	    0.260960
         1.680000	    0.260293	    0.260293
         1.682000	    0.259628	    0.259628
         1.684000	    0.258963	    0.258963
         1.686000	    0.258299	    0.258299
         1.688000	    0.257637	    0.257637
         1.690000	    0.256977	    0.256977
         1.692000	    0.256317	    0.256317
         1.694000	    0.255659	    0.255659
         1.696000	    0.255001	    0.255001
         1.698000	    0.254345	    0.254345
         1.700000	    0.253691	    0.253691
         1.702000	    0.253037	    0.253037
         1.704000	    0.252385	    0.252385
         1.706000	    0.251733	    0.251733
         1.708000	    0.251083	    0.251083
         1.710000	    0.250434	    0.250434
         1.712000	    0.249787	    0.249787
         1.714000	    0.249140	    0.249140
         1.716000	    0.248495	    0.248495
         1.718000	    0.247852	    0.247852
         1.720000	    0.247209	    0.247209
         1.722000	    0.246568	    0.246568
         1.724000	    0.245928	    0.245928
         1.726000	    0.245289	    0.245289
         1.728000	    0.244651	    0.244651
         1.730000	    0.244014	    0.244014
         1.732000	    0.243379	    0.243379
         1.734000	    0.242745	    0.242745
         1.736000	    0.242112	    0.242112
         1.738000	    0.241480	    0.241480
         1.740000	    0.240850	    0.240850
         1.742000	    0.240220	    0.240220
         1.744000	    0.239592	    0.239592
         1.746000	    0.238966	    0.238966
         1.748000	    0.238341	    0.238341
         1.750000	    0.237716	    0.237716
         1.752000	    0.237093	    0.237093
         1.754000	    0.236472	    0.236472
         1.756000	    0.235851	    0.235851
         1.758000	    0.235232	    0.235232
         1.760000	    0.234613	    0.234613
         1.762000	    0.233997	    0.233997
         1.764000	    0.233381	    0.233381
         1.766000	    0.232766	    0.232766
         1.768000	    0.232153	    0.232153
         1.770000	    0.231541	    0.231541
         1.772000	    0.230930	    0.230930
         1.774000	    0.230320	    0.230320
         1.776000	    0.229712	    0.229712
         1.778000	    0.229105	    0.229105
         1.780000	    0.228500	    0.228500
         1.782000	    0.227895	    0.227895
         1.784000	    0.227292	    0.227292
         1.786000	    0.226689	    0.226689
         1.788000	    0.226088	    0.226088
         1.790000	    0.225489	    0.225489
         1.792000	    0.224890	    0.224890
         1.794000	    0.224293	    0.224293
         1.796000	    0.223697	    0.223697
         1.798000	    0.223102	    0.223102
         1.800000	    0.222508	    0.222508
         1.802000	    0.221916	    0.221916
         1.804000	    0.221325	    0.221325
         1.806000	    0.220735	    0.220735
         1.808000	    0.220147	    0.220147
         1.810000	    0.219559	    0.219559
         1.812000	    0.218973	    0.218973
         1.814000	    0.218388	    0.218388
         1.816000	    0.217805	    0.217805
         1.818000	    0.217222	    0.217222
         1.820000	    0.216641	    0.216641
         1.822000	    0.216061	    0.216061
         1.824000	    0.215482	    0.215482
         1.826000	    0.214904	    0.214904
         1.828000	    0.214328	    0.214328
         1.830000	    0.213753	    0.213753
         1.832000	    0.213179	    0.213179
         1.834000	    0.212607	    0.212607
         1.836000	    0.212036	    0.212036
         1.838000	    0.211465	    0.211465
         1.840000	    0.210897	    0.210897
         1.842000	    0.210329	    0.210329
         1.844000	    0.209762	    0.209762
         1.846000	    0.209197	    0.209197
         1.848000	    0.208633	    0.208633
         1.850000	    0.208071	    0.208071
         1.852000	    0.207509	    0.207509
         1.854000	    0.206949	    0.206949
         1.856000	    0.206390	    0.206390
         1.858000	    0.205833	    0.205833
         1.860000	    0.205276	    0.205276
         1.862000	    0.204721	    0.204721
         1.864000	    0.204167	    0.204167
         1.866000	    0.203614	    0.203614
         1.868000	    0.203063	    0.203063
         1.870000	    0.202512	    0.202512
         1.872000	    0.201963	    0.201963
         1.874000	    0.201415	    0.201415
         1.876000	    0.200868	    0.200868
         1.878000	    0.200323	    0.200323
         1.880000	    0.199779	    0.199779
         1.882000	    0.199236	    0.199236
         1.884000	    0.198695	    0.198695
         1.886000	    0.198154	    0.198154
         1.888000	    0.197615	    0.197615
         1.890000	    0.197077	    0.197077
         1.892000	    0.196540	    0.196540
         1.894000	    0.196005	    0.196005
         1.896000	    0.195470	    0.195470
         1.898000	    0.194937	    0.194937
         1.900000	    0.194405	    0.194405
         1.902000	    0.193874	    0.193874
         1.904000	    0.193345	    0.193345
         1.906000	    0.192817	    0.192817
         1.908000	    0.192290	    0.192290
         1.910000	    0.191764	    0.191764
         1.912000	    0.191240	    0.191240
         1.914000	    0.190717	    0.190717
         1.916000	    0.190195	    0.190195
         1.918000	    0.189674	    0.189674
         1.920000	    0.189154	    0.189154
         1.922000	    0.188636	    0.188636
         1.924000	    0.188119	    0.188119
         1.926000	    0.187603	    0.187603
         1.928000	    0.187088	    0.187088
         1.930000	    0.186575	    0.186575
         1.932000	    0.186063	    0.186063
         1.934000	    0.185552	    0.185552
         1.936000	    0.185043	    0.185043
         1.938000	    0.184534	    0.184534
         1.940000	    0.184027	    0.184027
         1.942000	    0.183521	    0.183521
         1.944000	    0.183016	    0.183016
         1.946000	    0.182513	    0.182513
         1.948000	    0.182010	    0.182010
         1.950000	    0.181509	    0.181509
         1.952000	    0.181009	    0.181009
         1.954000	    0.180510	    0.180510
         1.956000	    0.180013	    0.180013
         1.958000	    0.179517	    0.179517
         1.960000	    0.179022	    0.179022
         1.962000	    0.178528	    0.178528
         1.964000	    0.178036	    0.178036
         1.966000	    0.177545	    0.177545
         1.968000	    0.177054	    0.177054
         1.970000	    0.176566	    0.176566
         1.972000	    0.176078	    0.176078
         1.974000	    0.175591	    0.175591
         1.976000	    0.175106	    0.175106
         1.978000	    0.174622	    0.174622
         1.980000	    0.174140	    0.174140
         1.982000	    0.173658	    0.173658
         1.984000	    0.173178	    0.173178
         1.986000	    0.172699	    0.172699
         1.988000	    0.172221	    0.172221
         1.990000	    0.171745	    0.171745
         1.992000	    0.171269	    0.171269
         1.994000	    0.170795	    0.170795
         1.996000	    0.170322	    0.170322
         1.998000	    0.169850	    0.169850
         2.000000	    0.169379	    0.169379
         2.002000	    0.168910	    0.168910
         2.004000	    0.168442	    0.168442
         2.006000	    0.167975	    0.167975
         2.008000	    0.167509	    0.167509
         2.010000	    0.167045	    0.167045
         2.012000	    0.166581	    0.166581
         2.014000	    0.166119	    0.166119
         2.016000	    0.165659	    0.165659
         2.018000	    0.165199	    0.165199
         2.020000	    0.164740	    0.164740
         2.022000	    0.164283	    0.164283
         2.024000	    0.163827	    0.163827
         2.026000	    0.163372	    0.163372
         2.028000	    0.162919	    0.162919
         2.030000	    0.162467	    0.162467
         2.032000	    0.162015	    0.162015
         2.034000	    0.161566	    0.161566
         2.036000	    0.161117	    0.161117
         2.038000	    0.160669	    0.160669
         2.040000	    0.160223	    0.160223
         2.042000	    0.159778	    0.159778
         2.044000	    0.159334	    0.159334
         2.046000	    0.158891	    0.158891
         2.048000	    0.158449	    0.158449
         2.050000	    0.158009	    0.158009
         2.052000	    0.157569	    0.157569
         2.054000	    0.157131	    0.157131
         2.056000	    0.156695	    0.156695
         2.058000	    0.156259	    0.156259
         2.060000	    0.155825	    0.155825
         2.062000	    0.155392	    0.155392
         2.064000	    0.154960	    0.154960
         2.066000	    0.154529	    0.154529
         2.068000	    0.154099	    0.154099
         2.070000	    0.153671	    0.153671
         2.072000	    0.153244	    0.153244
         2.074000	    0.152818	    0.152818
         2.076000	    0.152393	    0.152393
         2.078000	    0.151970	    0.151970
         2.080000	    0.151547	    0.151547
         2.082000	    0.151126	    0.151126
         2.084000	    0.150706	    0.150706
         2.086000	    0.150287	    0.150287
         2.088000	    0.149870	    0.149870
         2.090000	    0.149453	    0.149453
         2.092000	    0.149038	    0.149038
         2.094000	    0.148624	    0.148624
         2.096000	    0.148211	    0.148211
         2.098000	    0.147799	    0.147799
         2.100000	    0.147389	    0.147389
         2.102000	    0.146980	    0.146980
         2.104000	    0.146572	    0.146572
         2.106000	    0.146165	    0.146165
         2.108000	    0.145759	    0.145759
         2.110000	    0.145354	    0.145354
         2.112000	    0.144951	    0.144951
         2.114000	    0.144548	    0.144548
         2.116000	    0.144147	    0.144147
         2.118000	    0.143748	    0.143748
         2.120000	    0.143349	    0.143349
         2.122000	    0.142952	    0.142952
         2.124000	    0.142555	    0.142555
         2.126000	    0.142160	    0.142160
         2.128000	    0.141766	    0.141766
         2.130000	    0.141374	    0.141374
         2.132000	    0.140982	    0.140982
         2.134000	    0.140591	    0.140591
         2.136000	    0.140202	    0.140202
         2.138000	    0.139814	    0.139814
         2.140000	    0.139427	    0.139427
         2.142000	    0.139040	    0.139040
         2.144000	    0.138656	    0.138656
         2.146000	    0.138272	    0.138272
         2.148000	    0.137890	    0.137890
         2.150000	    0.137509	    0.137509
         2.152000	    0.137129	    0.137129
         2.154000	    0.136750	    0.136750
         2.156000	    0.136372	    0.136372
         2.158000	    0.135996	    0.135996
         2.160000	    0.135620	    0.135620
         2.162000	    0.135246	    0.135246
         2.164000	    0.134873	    0.134873
         2.166000	    0.134501	    0.134501
         2.168000	    0.134130	    0.134130
         2.170000	    0.133761	    0.133761
         2.172000	    0.133392	    0.133392
         2.174000	    0.133025	    0.133025
         2.176000	    0.132659	    0.132659
         2.178000	    0.132294	    0.132294
         2.180000	    0.131930	    0.131930
         2.182000	    0.131567	    0.131567
         2.184000	    0.131205	    0.131205
         2.186000	    0.130845	    0.130845
         2.188000	    0.130486	    0.130486
         2.190000	    0.130128	    0.130128
         2.192000	    0.129771	    0.129771
         2.194000	    0.129415	    0.129415
         2.196000	    0.129060	    0.129060
         2.198000	    0.128707	    0.128707
         2.200000	    0.128354	    0.128354
         2.202000	    0.128003	    0.128003
         2.204000	    0.127653	    0.127653
         2.206000	    0.127304	    0.127304
         2.208000	    0.126956	    0.126956
         2.210000	    0.126609	    0.126609
         2.212000	    0.126264	    0.126264
         2.214000	    0.125919	    0.125919
         2.216000	    0.125576	    0.125576
         2.218000	    0.125234	    0.125234
         2.220000	    0.124893	    0.124893
         2.222000	    0.124553	    0.124553
         2.224000	    0.124214	    0.124214
         2.226000	    0.123876	    0.123876
         2.228000	    0.123539	    0.123539
         2.230000	    0.123204	    0.123204
         2.232000	    0.122870	    0.122870
         2.234000	    0.122537	    0.122537
         2.236000	    0.122205	    0.122205
         2.238000	    0.121874	    0.121874
         2.240000	    0.121544	    0.121544
         2.242000	    0.121215	    0.121215
         2.244000	    0.120887	    0.120887
         2.246000	    0.120561	    0.120561
         2.248000	    0.120235	    0.120235
         2.250000	    0.119911	    0.119911
         2.252000	    0.119588	    0.119588
         2.254000	    0.119266	    0.119266
         2.256000	    0.118945	    0.118945
         2.258000	    0.118625	    0.118625
         2.260000	    0.118306	    0.118306
         2.262000	    0.117989	    0.117989
         2.264000	    0.117672	    0.117672
         2.266000	    0.117356	    0.117356
         2.268000	    0.117042	    0.117042
         2.270000	    0.116728	    0.116728
         2.272000	    0.116416	    0.116416
         2.274000	    0.116105	    0.116105
         2.276000	    0.115796	    0.115796
         2.278000	    0.115487	    0.115487
         2.280000	    0.115179	    0.115179
         2.282000	    0.114872	    0.114872
         2.284000	    0.114567	    0.114567
         2.286000	    0.114262	    0.114262
         2.288000	    0.113958	    0.113958
         2.290000	    0.113656	    0.113656
         2.292000	    0.113355	    0.113355
         2.294000	    0.113054	    0.113054
         2.296000	    0.112756	    0.112756
         2.298000	    0.112458	    0.112458
         2.300000	    0.112161	    0.112161
         2.302000	    0.111865	    0.111865
         2.304000	    0.111570	    0.111570
         2.306000	    0.111276	    0.111276
         2.308000	    0.110984	    0.110984
         2.310000	    0.110692	    0.110692
         2.312000	    0.110401	    0.110401
         2.314000	    0.110112	    0.110112
         2.316000	    0.109824	    0.109824
         2.318000	    0.109536	    0.109536
         2.320000	    0.109250	    0.109250
         2.322000	    0.108965	    0.108965
         2.324000	    0.108681	    0.108681
         2.326000	    0.108398	    0.108398
         2.328000	    0.108116	    0.108116
         2.330000	    0.107835	    0.107835
         2.332000	    0.107555	    0.107555
         2.334000	    0.107276	    0.107276
         2.336000	    0.106998	    0.106998
         2.338000	    0.106722	    0.106722
         2.340000	    0.106446	    0.106446
         2.342000	    0.106172	    0.106172
         2.344000	    0.105898	    0.105898
         2.346000	    0.105626	    0.105626
         2.348000	    0.105354	    0.105354
         2.350000	    0.105084	    0.105084
         2.352000	    0.104814	    0.104814
         2.354000	    0.104546	    0.104546
         2.356000	    0.104278	    0.104278
         2.358000	    0.104012	    0.104012
         2.360000	    0.103747	    0.103747
         2.362000	    0.103483	    0.103483
         2.364000	    0.103220	    0.103220
         2.366000	    0.102958	    0.102958
         2.368000	    0.102697	    0.102697
         2.370000	    0.102437	    0.102437
         2.372000	    0.102178	    0.102178
         2.374000	    0.101919	    0.101919
         2.376000	    0.101662	    0.101662
         2.378000	    0.101407	    0.101407
         2.380000	    0.101152	    0.101152
         2.382000	    0.100898	    0.100898
         2.384000	    0.100645	    0.100645
         2.386000	    0.100393	    0.100393
         2.388000	    0.100142	    0.100142
         2.390000	    0.099893	    0.099893
         2.392000	    0.099644	    0.099644
         2.394000	    0.099397	    0.099397
         2.396000	    0.099150	    0.099150
         2.398000	    0.098904	    0.098904
         2.400000	    0.098660	    0.098660
         2.402000	    0.098416	    0.098416
         2.404000	    0.098174	    0.098174
         2.406000	    0.097932	    0.097932
         2.408000	    0.097691	    0.097691
         2.410000	    0.097451	    0.097451
         2.412000	    0.097213	    0.097213
         2.414000	    0.096975	    0.096975
         2.416000	    0.096739	    0.096739
         2.418000	    0.096503	    0.096503
         2.420000	    0.096269	    0.096269
         2.422000	    0.096035	    0.096035
         2.424000	    0.095802	    0.095802
         2.426000	    0.095571	    0.095571
         2.428000	    0.095340	    0.095340
         2.430000	    0.095110	    0.095110
         2.432000	    0.094881	    0.094881
         2.434000	    0.094654	    0.094654
         2.436000	    0.094427	    0.094427
         2.438000	    0.094201	    0.094201
         2.440000	    0.093977	    0.093977
         2.442000	    0.093753	    0.093753
         2.444000	    0.093530	    0.093530
         2.446000	    0.093308	    0.093308
         2.448000	    0.093087	    0.093087
         2.450000	    0.092867	    0.092867
         2.452000	    0.092648	    0.092648
         2.454000	    0.092430	    0.092430
         2.456000	    0.092213	    0.092213
         2.458000	    0.091997	    0.091997
         2.460000	    0.091782	    0.091782
         2.462000	    0.091568	    0.091568
         2.464000	    0.091355	    0.091355
         2.466000	    0.091143	    0.091143
         2.468000	    0.090932	    0.090932
         2.470000	    0.090722	    0.090722
         2.472000	    0.090513	    0.090513
         2.474000	    0.090305	    0.090305
         2.476000	    0.090097	    0.090097
         2.478000	    0.089891	    0.089891
         2.480000	    0.089686	    0.089686
         2.482000	    0.089481	    0.089481
         2.484000	    0.089278	    0.089278
         2.486000	    0.089075	    0.089075
         2.488000	    0.088873	    0.088873
         2.490000	    0.088672	    0.088672
         2.492000	    0.088473	    0.088473
         2.494000	    0.088274	    0.088274
         2.496000	    0.088076	    0.088076
         2.498000	    0.087880	    0.087880
         2.500000	    0.087684	    0.087684
         2.502000	    0.087488	    0.087488
         2.504000	    0.087294	    0.087294
         2.506000	    0.087101	    0.087101
         2.508000	    0.086909	    0.086909
         2.510000	    0.086717	    0.086717
         2.512000	    0.086527	    0.086527
         2.514000	    0.086337	    0.086337
         2.516000	    0.086149	    0.086149
         2.518000	    0.085961	    0.085961
         2.520000	    0.085775	    0.085775
         2.522000	    0.085589	    0.085589
         2.524000	    0.085404	    0.085404
         2.526000	    0.085220	    0.085220
         2.528000	    0.085037	    0.085037
         2.530000	    0.084855	    0.084855
         2.532000	    0.084674	    0.084674
         2.534000	    0.084494	    0.084494
         2.536000	    0.084315	    0.084315
         2.538000	    0.084136	    0.084136
         2.540000	    0.083958	    0.083958
         2.542000	    0.083782	    0.083782
         2.544000	    0.083606	    0.083606
         2.546000	    0.083431	    0.083431
         2.548000	    0.083257	    0.083257
         2.550000	    0.083084	    0.083084
         2.552000	    0.082912	    0.082912
         2.554000	    0.082741	    0.082741
         2.556000	    0.082570	    0.082570
         2.558000	    0.082401	    0.082401
         2.560000	    0.082232	    0.082232
         2.562000	    0.082064	    0.082064
         2.564000	    0.081897	    0.081897
         2.566000	    0.081731	    0.081731
         2.568000	    0.081566	    0.081566
         2.570000	    0.081402	    0.081402
         2.572000	    0.081239	    0.081239
         2.574000	    0.081077	    0.081077
         2.576000	    0.080915	    0.080915
         2.578000	    0.080754	    0.080754
         2.580000	    0.080595	    0.080595
         2.582000	    0.080436	    0.080436
         2.584000	    0.080278	    0.080278
         2.586000	    0.080121	    0.080121
         2.588000	    0.079965	    0.079965
         2.590000	    0.079809	    0.079809
         2.592000	    0.079655	    0.079655
         2.594000	    0.079501	    0.079501
         2.596000	    0.079348	    0.079348
         2.598000	    0.079196	    0.079196
         2.600000	    0.079045	    0.079045
         2.602000	    0.078895	    0.078895
         2.604000	    0.078745	    0.078745
         2.606000	    0.078597	    0.078597
         2.608000	    0.078449	    0.078449
         2.610000	    0.078303	    0.078303
         2.612000	    0.078157	    0.078157
         2.614000	    0.078011	    0.078011
         2.616000	    0.077867	    0.077867
         2.618000	    0.077724	    0.077724
         2.620000	    0.077581	    0.077581
         2.622000	    0.077440	    0.077440
         2.624000	    0.077299	    0.077299
         2.626000	    0.077159	    0.077159
         2.628000	    0.077020	    0.077020
         2.630000	    0.076882	    0.076882
         2.632000	    0.076744	    0.076744
         2.634000	    0.076607	    0.076607
         2.636000	    0.076471	    0.076471
         2.638000	    0.076336	    0.076336
         2.640000	    0.076202	    0.076202
         2.642000	    0.076069	    0.076069
         2.644000	    0.075936	    0.075936
         2.646000	    0.075804	    0.075804
         2.648000	    0.075673	    0.075673
         2.650000	    0.075543	    0.075543
         2.652000	    0.075414	    0.075414
         2.654000	    0.075286	    0.075286
         2.656000	    0.075159	    0.075159
         2.658000	    0.075032	    0.075032
         2.660000	    0.074906	    0.074906
         2.662000	    0.074781	    0.074781
         2.664000	    0.074656	    0.074656
         2.666000	    0.074533	    0.074533
         2.668000	    0.074410	    0.074410
         2.670000	    0.074288	    0.074288
         2.672000	    0.074167	    0.074167
         2.674000	    0.074046	    0.074046
         2.676000	    0.073927	    0.073927
         2.678000	    0.073808	    0.073808
         2.680000	    0.073691	    0.073691
         2.682000	    0.073573	    0.073573
         2.684000	    0.073457	    0.073457
         2.686000	    0.073341	    0.073341
         2.688000	    0.073227	    0.073227
         2.690000	    0.073113	    0.073113
         2.692000	    0.073000	    0.073000
         2.694000	    0.072888	    0.072888
         2.696000	    0.072776	    0.072776
         2.698000	    0.072666	    0.072666
         2.700000	    0.072556	    0.072556
         2.702000	    0.072446	    0.072446
         2.704000	    0.072338	    0.072338
         2.706000	    0.072230	    0.072230
         2.708000	    0.072123	    0.072123
         2.710000	    0.072017	    0.072017
         2.712000	    0.071912	    0.071912
         2.714000	    0.071807	    0.071807
         2.716000	    0.071703	    0.071703
         2.718000	    0.071600	    0.071600
         2.720000	    0.071498	    0.071498
         2.722000	    0.071397	    0.071397
         2.724000	    0.071296	    0.071296
         2.726000	    0.071196	    0.071196
         2.728000	    0.071097	    0.071097
         2.730000	    0.070999	    0.070999
         2.732000	    0.070901	    0.070901
         2.734000	    0.070804	    0.070804
         2.736000	    0.070708	    0.070708
         2.738000	    0.070613	    0.070613
         2.740000	    0.070518	    0.070518
         2.742000	    0.070424	    0.070424
         2.744000	    0.070331	    0.070331
         2.746000	    0.070239	    0.070239
         2.748000	    0.070147	    0.070147
         2.750000	    0.070056	    0.070056
         2.752000	    0.069966	    0.069966
         2.754000	    0.069877	    0.069877
         2.756000	    0.069788	    0.069788
         2.758000	    0.069700	    0.069700
         2.760000	    0.069613	    0.069613
         2.762000	    0.069527	    0.069527
         2.764000	    0.069442	    0.069442
         2.766000	    0.069357	    0.069357
         2.768000	    0.069272	    0.069272
         2.770000	    0.069189	    0.069189
         2.772000	    0.069106	    0.069106
         2.774000	    0.069025	    0.069025
         2.776000	    0.068944	    0.068944
         2.778000	    0.068863	    0.068863
         2.780000	    0.068784	    0.068784
         2.782000	    0.068705	    0.068705
         2.784000	    0.068626	    0.068626
         2.786000	    0.068549	    0.068549
         2.788000	    0.068472	    0.068472
         2.790000	    0.068395	    0.068395
         2.792000	    0.068320	    0.068320
         2.794000	    0.068245	    0.068245
         2.796000	    0.068171	    0.068171
         2.798000	    0.068098	    0.068098
         2.800000	    0.068026	    0.068026
         2.802000	    0.067954	    0.067954
         2.804000	    0.067882	    0.067882
         2.806000	    0.067812	    0.067812
         2.808000	    0.067742	    0.067742
         2.810000	    0.067674	    0.067674
         2.812000	    0.067605	    0.067605
         2.814000	    0.067538	    0.067538
         2.816000	    0.067471	    0.067471
         2.818000	    0.067405	    0.067405
         2.820000	    0.067339	    0.067339
         2.822000	    0.067274	    0.067274
         2.824000	    0.067210	    0.067210
         2.826000	    0.067146	    0.067146
         2.828000	    0.067084	    0.067084
         2.830000	    0.067022	    0.067022
         2.832000	    0.066961	    0.066961
         2.834000	    0.066900	    0.066900
         2.836000	    0.066840	    0.066840
         2.838000	    0.066781	    0.066781
         2.840000	    0.066722	    0.066722
         2.842000	    0.066664	    0.066664
         2.844000	    0.066607	    0.066607
         2.846000	    0.066551	    0.066551
         2.848000	    0.066495	    0.066495
         2.850000	    0.066440	    0.066440
         2.852000	    0.066385	    0.066385
         2.854000	    0.066331	    0.066331
         2.856000	    0.066278	    0.066278
         2.858000	    0.066226	    0.066226
         2.860000	    0.066174	    0.066174
         2.862000	    0.066123	    0.066123
         2.864000	    0.066073	    0.066073
         2.866000	    0.066023	    0.066023
         2.868000	    0.065974	    0.065974
         2.870000	    0.065926	    0.065926
         2.872000	    0.065878	    0.065878
         2.874000	    0.065832	    0.065832
         2.876000	    0.065785	    0.065785
         2.878000	    0.065740	    0.065740
         2.880000	    0.065695	    0.065695
         2.882000	    0.065650	    0.065650
         2.884000	    0.065607	    0.065607
         2.886000	    0.065563	    0.065563
         2.888000	    0.065521	    0.065521
         2.890000	    0.065479	    0.065479
         2.892000	    0.065438	    0.065438
         2.894000	    0.065398	    0.065398
         2.896000	    0.065358	    0.065358
         2.898000	    0.065319	    0.065319
         2.900000	    0.065280	    0.065280
         2.902000	    0.065242	    0.065242
         2.904000	    0.065205	    0.065205
         2.906000	    0.065169	    0.065169
         2.908000	    0.065133	    0.065133
         2.910000	    0.065098	    0.065098
         2.912000	    0.065063	    0.065063
         2.914000	    0.065029	    0.065029
         2.916000	    0.064996	    0.064996
         2.918000	    0.064963	    0.064963
         2.920000	    0.064931	    0.064931
         2.922000	    0.064900	    0.064900
         2.924000	    0.064869	    0.064869
         2.926000	    0.064839	    0.064839
         2.928000	    0.064810	    0.064810
         2.930000	    0.064781	    0.064781
         2.932000	    0.064753	    0.064753
         2.934000	    0.064725	    0.064725
         2.936000	    0.064699	    0.064699
         2.938000	    0.064672	    0.064672
         2.940000	    0.064647	    0.064647
         2.942000	    0.064622	    0.064622
         2.944000	    0.064597	    0.064597
         2.946000	    0.064574	    0.064574
         2.948000	    0.064550	    0.064550
         2.950000	    0.064528	    0.064528
         2.952000	    0.064506	    0.064506
         2.954000	    0.064484	    0.064484
         2.956000	    0.064464	    0.064464
         2.958000	    0.064444	    0.064444
         2.960000	    0.064424	    0.064424
         2.962000	    0.064405	    0.064405
         2.964000	    0.064387	    0.064387
         2.966000	    0.064369	    0.064369
         2.968000	    0.064352	    0.064352
         2.970000	    0.064336	    0.064336
         2.972000	    0.064320	    0.064320
         2.974000	    0.064305	    0.064305
         2.976000	    0.064290	    0.064290
         2.978000	    0.064276	    0.064276
         2.980000	    0.064263	    0.064263
         2.982000	    0.064250	    0.064250
         2.984000	    0.064238	    0.064238
         2.986000	    0.064227	    0.064227
         2.988000	    0.064216	    0.064216
         2.990000	    0.064206	    0.064206
         2.992000	    0.064196	    0.064196
         2.994000	    0.064187	    0.064187
         2.996000	    0.064178	    0.064178
         2.998000	    0.064170	    0.064170
         3.000000	    0.064163	    0.064163
         3.002000	    0.064156	    0.064156
         3.004000	    0.064150	    0.064150
         3.006000	    0.064145	    0.064145
         3.008000	    0.064140	    0.064140
         3.010000	    0.064135	    0.064135
         3.012000	    0.064132	    0.064132
         3.014000	    0.064129	    0.064129
         3.016000	    0.064126	    0.064126
         3.018000	    0.064124	    0.064124
         3.020000	    0.064123	    0.064123
         3.022000	    0.064122	    0.064122
         3.024000	    0.064122	    0.064122
         3.026000	    0.064122	    0.064122
         3.028000	    0.064123	    0.064123
         3.030000	    0.064125	    0.064125
         3.032000	    0.064127	    0.064127
         3.034000	    0.064130	    0.064130
         3.036000	    0.064133	    0.064133
         3.038000	    0.064137	    0.064137
         3.040000	    0.064141	    0.064141
         3.042000	    0.064146	    0.064146
         3.044000	    0.064151	    0.064151
         3.046000	    0.064158	    0.064158
         3.048000	    0.064164	    0.064164
         3.050000	    0.064172	    0.064172
         3.052000	    0.064179	    0.064179
         3.054000	    0.064188	    0.064188
         3.056000	    0.064197	    0.064197
         3.058000	    0.064206	    0.064206
         3.060000	    0.064216	    0.064216
         3.062000	    0.064227	    0.064227
         3.064000	    0.064238	    0.064238
         3.066000	    0.064250	    0.064250
         3.068000	    0.064262	    0.064262
         3.070000	    0.064275	    0.064275
         3.072000	    0.064288	    0.064288
         3.074000	    0.064302	    0.064302
         3.076000	    0.064317	    0.064317
         3.078000	    0.064332	    0.064332
         3.080000	    0.064348	    0.064348
         3.082000	    0.064364	    0.064364
         3.084000	    0.064381	    0.064381
         3.086000	    0.064398	    0.064398
         3.088000	    0.064416	    0.064416
         3.090000	    0.064435	    0.064435
         3.092000	    0.064454	    0.064454
         3.094000	    0.064474	    0.064474
         3.096000	    0.064494	    0.064494
         3.098000	    0.064515	    0.064515
         3.100000	    0.064536	    0.064536
         3.102000	    0.064557	    0.064557
         3.104000	    0.064580	    0.064580
         3.106000	    0.064603	    0.064603
         3.108000	    0.064627	    0.064627
         3.110000	    0.064651	    0.064651
         3.112000	    0.064675	    0.064675
         3.114000	    0.064700	    0.064700
         3.116000	    0.064726	    0.064726
         3.118000	    0.064752	    0.064752
         3.120000	    0.064779	    0.064779
         3.122000	    0.064806	    0.064806
         3.124000	    0.064834	    0.064834
         3.126000	    0.064862	    0.064862
         3.128000	    0.064891	    0.064891
         3.130000	    0.064920	    0.064920
         3.132000	    0.064950	    0.064950
         3.134000	    0.064981	    0.064981
         3.136000	    0.065012	    0.065012
         3.138000	    0.065044	    0.065044
         3.140000	    0.065076	    0.065076
         3.142000	    0.065108	    0.065108
         3.144000	    0.065141	    0.065141
         3.146000	    0.065175	    0.065175
         3.148000	    0.065210	    0.065210
         3.150000	    0.065245	    0.065245
         3.152000	    0.065280	    0.065280
         3.154000	    0.065316	    0.065316
         3.156000	    0.065352	    0.065352
         3.158000	    0.065389	    0.065389
         3.160000	    0.065426	    0.065426
         3.162000	    0.065464	    0.065464
         3.164000	    0.065503	    0.065503
         3.166000	    0.065542	    0.065542
         3.168000	    0.065581	    0.065581
         3.170000	    0.065621	    0.065621
         3.172000	    0.065662	    0.065662
         3.174000	    0.065703	    0.065703
         3.176000	    0.065744	    0.065744
         3.178000	    0.065787	    0.065787
         3.180000	    0.065829	    0.065829
         3.182000	    0.065872	    0.065872
         3.184000	    0.065916	    0.065916
         3.186000	    0.065960	    0.065960
         3.188000	    0.066005	    0.066005
         3.190000	    0.066050	    0.066050
         3.192000	    0.066096	    0.066096
         3.194000	    0.066142	    0.066142
         3.196000	    0.066189	    0.066189
         3.198000	    0.066236	    0.066236
         3.200000	    0.066284	    0.066284
         3.202000	    0.066332	    0.066332
         3.204000	    0.066381	    0.066381
         3.206000	    0.066430	    0.066430
         3.208000	    0.066480	    0.066480
         3.210000	    0.066530	    0.066530
         3.212000	    0.066581	    0.066581
         3.214000	    0.066632	    0.066632
         3.216000	    0.066684	    0.066684
         3.218000	    0.066737	    0.066737
         3.220000	    0.066790	    0.066790
         3.222000	    0.066843	    0.066843
         3.224000	    0.066897	    0.066897
         3.226000	    0.066951	    0.066951
         3.228000	    0.067006	    0.067006
         3.230000	    0.067061	    0.067061
         3.232000	    0.067117	    0.067117
         3.234000	    0.067174	    0.067174
         3.236000	    0.067230	    0.067230
         3.238000	    0.067288	    0.067288
         3.240000	    0.067345	    0.067345
         3.242000	    0.067404	    0.067404
         3.244000	    0.067462	    0.067462
         3.246000	    0.067522	    0.067522
         3.248000	    0.067582	    0.067582
         3.250000	    0.067642	    0.067642
         3.252000	    0.067703	    0.067703
         3.254000	    0.067764	    0.067764
         3.256000	    0.067826	    0.067826
         3.258000	    0.067888	    0.067888
         3.260000	    0.067951	    0.067951
         3.262000	    0.068014	    0.068014
         3.264000	    0.068078	    0.068078
         3.266000	    0.068142	    0.068142
         3.268000	    0.068207	    0.068207
         3.270000	    0.068272	    0.068272
         3.272000	    0.068337	    0.068337
         3.274000	    0.068404	    0.068404
         3.276000	    0.068470	    0.068470
         3.278000	    0.068537	    0.068537
         3.280000	    0.068605	    0.068605
         3.282000	    0.068673	    0.068673
         3.284000	    0.068741	    0.068741
         3.286000	    0.068810	    0.068810
         3.288000	    0.068880	    0.068880
         3.290000	    0.068950	    0.068950
         3.292000	    0.069021	    0.069021
         3.294000	    0.069092	    0.069092
         3.296000	    0.069163	    0.069163
         3.298000	    0.069235	    0.069235
         3.300000	    0.069307	    0.069307
         3.302000	    0.069380	    0.069380
         3.304000	    0.069453	    0.069453
         3.306000	    0.069527	    0.069527
         3.308000	    0.069601	    0.069601
         3.310000	    0.069676	    0.069676
         3.312000	    0.069751	    0.069751
         3.314000	    0.069827	    0.069827
         3.316000	    0.069903	    0.069903
         3.318000	    0.069980	    0.069980
         3.320000	    0.070057	    0.070057
         3.322000	    0.070134	    0.070134
         3.324000	    0.070212	    0.070212
         3.326000	    0.070290	    0.070290
         3.328000	    0.070369	    0.070369
         3.330000	    0.070449	    0.070449
         3.332000	    0.070529	    0.070529
         3.334000	    0.070609	    0.070609
         3.336000	    0.070690	    0.070690
         3.338000	    0.070771	    0.070771
         3.340000	    0.070853	    0.070853
         3.342000	    0.070935	    0.070935
         3.344000	    0.071018	    0.071018
         3.346000	    0.071101	    0.071101
         3.348000	    0.071184	    0.071184
         3.350000	    0.071269	    0.071269
         3.352000	    0.071353	    0.071353
         3.354000	    0.071439	    0.071439
         3.356000	    0.071524	    0.071524
         3.358000	    0.071610	    0.071610
         3.360000	    0.071696	    0.071696
         3.362000	    0.071783	    0.071783
         3.364000	    0.071871	    0.071871
         3.366000	    0.071958	    0.071958
         3.368000	    0.072047	    0.072047
         3.370000	    0.072136	    0.072136
         3.372000	    0.072225	    0.072225
         3.374000	    0.072314	    0.072314
         3.376000	    0.072404	    0.072404
         3.378000	    0.072495	    0.072495
         3.380000	    0.072586	    0.072586
         3.382000	    0.072677	    0.072677
         3.384000	    0.072769	    0.072769
         3.386000	    0.072861	    0.072861
         3.388000	    0.072954	    0.072954
         3.390000	    0.073047	    0.073047
         3.392000	    0.073141	    0.073141
         3.394000	    0.073235	    0.073235
         3.396000	    0.073329	    0.073329
         3.398000	    0.073424	    0.073424
         3.400000	    0.073520	    0.073520
         3.402000	    0.073615	    0.073615
         3.404000	    0.073711	    0.073711
         3.406000	    0.073808	    0.073808
         3.408000	    0.073905	    0.073905
         3.410000	    0.074003	    0.074003
         3.412000	    0.074101	    0.074101
         3.414000	    0.074200	    0.074200
         3.416000	    0.074298	    0.074298
         3.418000	    0.074398	    0.074398
         3.420000	    0.074497	    0.074497
         3.422000	    0.074598	    0.074598
         3.424000	    0.074698	    0.074698
         3.426000	    0.074799	    0.074799
         3.428000	    0.074901	    0.074901
         3.430000	    0.075003	    0.075003
         3.432000	    0.075105	    0.075105
         3.434000	    0.075208	    0.075208
         3.436000	    0.075311	    0.075311
         3.438000	    0.075415	    0.075415
         3.440000	    0.075519	    0.075519
         3.442000	    0.075623	    0.075623
         3.444000	    0.075729	    0.075729
         3.446000	    0.075834	    0.075834
         3.448000	    0.075940	    0.075940
         3.450000	    0.076046	    0.076046
         3.452000	    0.076153	    0.076153
         3.454000	    0.076260	    0.076260
         3.456000	    0.076368	    0.076368
         3.458000	    0.076476	    0.076476
         3.460000	    0.076584	    0.076584
         3.462000	    0.076693	    0.076693
         3.464000	    0.076802	    0.076802
         3.466000	    0.076912	    0.076912
         3.468000	    0.077022	    0.077022
         3.470000	    0.077133	    0.077133
         3.472000	    0.077244	    0.077244
         3.474000	    0.077355	    0.077355
         3.476000	    0.077467	    0.077467
         3.478000	    0.077579	    0.077579
         3.480000	    0.077691	    0.077691
         3.482000	    0.077804	    0.077804
         3.484000	    0.077918	    0.077918
         3.486000	    0.078032	    0.078032
         3.488000	    0.078146	    0.078146
         3.490000	    0.078261	    0.078261
         3.492000	    0.078376	    0.078376
         3.494000	    0.078491	    0.078491
         3.496000	    0.078607	    0.078607
         3.498000	    0.078723	    0.078723
         3.500000	    0.078840	    0.078840
         3.502000	    0.078957	    0.078957
         3.504000	    0.079075	    0.079075
         3.506000	    0.079193	    0.079193
         3.508000	    0.079311	    0.079311
         3.510000	    0.079430	    0.079430
         3.512000	    0.079550	    0.079550
         3.514000	    0.079669	    0.079669
         3.516000	    0.079789	    0.079789
         3.518000	    0.079909	    0.079909
         3.520000	    0.080030	    0.080030
         3.522000	    0.080152	    0.080152
         3.524000	    0.080273	    0.080273
         3.526000	    0.080395	    0.080395
         3.528000	    0.080518	    0.080518
         3.530000	    0.080640	    0.080640
         3.532000	    0.080764	    0.080764
         3.534000	    0.080887	    0.080887
         3.536000	    0.081011	    0.081011
         3.538000	    0.081136	    0.081136
         3.540000	    0.081261	    0.081261
         3.542000	    0.081386	    0.081386
         3.544000	    0.081511	    0.081511
         3.546000	    0.081637	    0.081637
         3.548000	    0.081763	    0.081763
         3.550000	    0.081890	    0.081890
         3.552000	    0.082017	    0.082017
         3.554000	    0.082145	    0.082145
         3.556000	    0.082273	    0.082273
         3.558000	    0.082402	    0.082402
         3.560000	    0.082530	    0.082530
         3.562000	    0.082659	    0.082659
         3.564000	    0.082789	    0.082789
         3.566000	    0.082919	    0.082919
         3.568000	    0.083049	    0.083049
         3.570000	    0.083180	    0.083180
         3.572000	    0.083311	    0.083311
         3.574000	    0.083442	    0.083442
         3.576000	    0.083574	    0.083574
         3.578000	    0.083706	    0.083706
         3.580000	    0.083839	    0.083839
         3.582000	    0.083971	    0.083971
         3.584000	    0.084105	    0.084105
         3.586000	    0.084239	    0.084239
         3.588000	    0.084373	    0.084373
         3.590000	    0.084507	    0.084507
         3.592000	    0.084642	    0.084642
         3.594000	    0.084777	    0.084777
         3.596000	    0.084912	    0.084912
         3.598000	    0.085048	    0.085048
         3.600000	    0.085184	    0.085184
         3.602000	    0.085321	    0.085321
         3.604000	    0.085458	    0.085458
         3.606000	    0.085596	    0.085596
         3.608000	    0.085734	    0.085734
         3.610000	    0.085872	    0.085872
         3.612000	    0.086010	    0.086010
         3.614000	    0.086149	    0.086149
         3.616000	    0.086288	    0.086288
         3.618000	    0.086428	    0.086428
         3.620000	    0.086568	    0.086568
         3.622000	    0.086708	    0.086708
         3.624000	    0.086849	    0.086849
         3.626000	    0.086990	    0.086990
         3.628000	    0.087131	    0.087131
         3.630000	    0.087272	    0.087272
         3.632000	    0.087415	    0.087415
         3.634000	    0.087557	    0.087557
         3.636000	    0.087700	    0.087700
         3.638000	    0.087843	    0.087843
         3.640000	    0.087987	    0.087987
         3.642000	    0.088131	    0.088131
         3.644000	    0.088275	    0.088275
         3.646000	    0.088420	    0.088420
         3.648000	    0.088564	    0.088564
         3.650000	    0.088710	    0.088710
         3.652000	    0.088855	    0.088855
         3.654000	    0.089001	    0.089001
         3.656000	    0.089148	    0.089148
         3.658000	    0.089294	    0.089294
         3.660000	    0.089441	    0.089441
         3.662000	    0.089588	    0.089588
         3.664000	    0.089736	    0.089736
         3.666000	    0.089884	    0.089884
         3.668000	    0.090032	    0.090032
         3.670000	    0.090181	    0.090181
         3.672000	    0.090330	    0.090330
         3.674000	    0.090479	    0.090479
         3.676000	    0.090629	    0.090629
         3.678000	    0.090779	    0.090779
         3.680000	    0.090930	    0.090930
         3.682000	    0.091080	    0.091080
         3.684000	    0.091231	    0.091231
         3.686000	    0.091383	    0.091383
         3.688000	    0.091534	    0.091534
         3.690000	    0.091686	    0.091686
         3.692000	    0.091839	    0.091839
         3.694000	    0.091991	    0.091991
         3.696000	    0.092144	    0.092144
         3.698000	    0.092297	    0.092297
         3.700000	    0.092451	    0.092451
         3.702000	    0.092605	    0.092605
         3.704000	    0.092759	    0.092759
         3.706000	    0.092913	    0.092913
         3.708000	    0.093068	    0.093068
         3.710000	    0.093224	    0.093224
         3.712000	    0.093379	    0.093379
         3.714000	    0.093535	    0.093535
         3.716000	    0.093691	    0.093691
         3.718000	    0.093848	    0.093848
         3.720000	    0.094004	    0.094004
         3.722000	    0.094161	    0.094161
         3.724000	    0.094319	    0.094319
         3.726000	    0.094476	    0.094476
         3.728000	    0.094634	    0.094634
         3.730000	    0.094793	    0.094793
         3.732000	    0.094951	    0.094951
         3.734000	    0.095110	    0.095110
         3.736000	    0.095269	    0.095269
         3.738000	    0.095428	    0.095428
         3.740000	    0.095588	    0.095588
         3.742000	    0.095748	    0.095748
         3.744000	    0.095908	    0.095908
         3.746000	    0.096069	    0.096069
         3.748000	    0.096230	    0.096230
         3.750000	    0.096391	    0.096391
         3.752000	    0.096553	    0.096553
         3.754000	    0.096714	    0.096714
         3.756000	    0.096876	    0.096876
         3.758000	    0.097039	    0.097039
         3.760000	    0.097201	    0.097201
         3.762000	    0.097364	    0.097364
         3.764000	    0.097527	    0.097527
         3.766000	    0.097691	    0.097691
         3.768000	    0.097854	    0.097854
         3.770000	    0.098018	    0.098018
         3.772000	    0.098182	    0.098182
         3.774000	    0.098347	    0.098347
         3.776000	    0.098511	    0.098511
         3.778000	    0.098677	    0.098677
         3.780000	    0.098842	    0.098842
         3.782000	    0.099008	    0.099008
         3.784000	    0.099174	    0.099174
         3.786000	    0.099340	    0.099340
         3.788000	    0.099506	    0.099506
         3.790000	    0.099673	    0.099673
         3.792000	    0.099840	    0.099840
         3.794000	    0.100007	    0.100007
         3.796000	    0.100174	    0.100174
         3.798000	    0.100342	    0.100342
         3.800000	    0.100510	    0.100510
         3.802000	    0.100678	    0.100678
         3.804000	    0.100847	    0.100847
         3.806000	    0.101016	    0.101016
         3.808000	    0.101185	    0.101185
         3.810000	    0.101354	    0.101354
         3.812000	    0.101523	    0.101523
         3.814000	    0.101693	    0.101693
         3.816000	    0.101863	    0.101863
         3.818000	    0.102033	    0.102033
         3.820000	    0.102204	    0.102204
         3.822000	    0.102375	    0.102375
         3.824000	    0.102546	    0.102546
         3.826000	    0.102717	    0.102717
         3.828000	    0.102888	    0.102888
         3.830000	    0.103060	    0.103060
         3.832000	    0.103232	    0.103232
         3.834000	    0.103404	    0.103404
         3.836000	    0.103576	    0.103576
         3.838000	    0.103749	    0.103749
         3.840000	    0.103922	    0.103922
         3.842000	    0.104095	    0.104095
         3.844000	    0.104268	    0.104268
         3.846000	    0.104441	    0.104441
         3.848000	    0.104614	    0.104614
         3.850000	    0.104788	    0.104788
         3.852000	    0.104962	    0.104962
         3.854000	    0.105136	    0.105136
         3.856000	    0.105311	    0.105311
         3.858000	    0.105486	    0.105486
         3.860000	    0.105661	    0.105661
         3.862000	    0.105836	    0.105836
         3.864000	    0.106011	    0.106011
         3.866000	    0.106187	    0.106187
         3.868000	    0.106362	    0.106362
         3.870000	    0.106538	    0.106538
         3.872000	    0.106714	    0.106714
         3.874000	    0.106890	    0.106890
         3.876000	    0.107067	    0.107067
         3.878000	    0.107244	    0.107244
         3.880000	    0.107421	    0.107421
         3.882000	    0.107598	    0.107598
         3.884000	    0.107775	    0.107775
         3.886000	    0.107952	    0.107952
         3.888000	    0.108130	    0.108130
         3.890000	    0.108308	    0.108308
         3.892000	    0.108486	    0.108486
         3.894000	    0.108664	    0.108664
         3.896000	    0.108842	    0.108842
         3.898000	    0.109021	    0.109021
         3.900000	    0.109200	    0.109200
         3.902000	    0.109379	    0.109379
         3.904000	    0.109558	    0.109558
         3.906000	    0.109737	    0.109737
         3.908000	    0.109916	    0.109916
         3.910000	    0.110095	    0.110095
         3.912000	    0.110275	    0.110275
         3.914000	    0.110455	    0.110455
         3.916000	    0.110635	    0.110635
         3.918000	    0.110815	    0.110815
         3.920000	    0.110996	    0.110996
         3.922000	    0.111176	    0.111176
         3.924000	    0.111357	    0.111357
         3.926000	    0.111538	    0.111538
         3.928000	    0.111719	    0.111719
         3.930000	    0.111899	    0.111899
         3.932000	    0.112081	    0.112081
         3.934000	    0.112262	    0.112262
         3.936000	    0.112443	    0.112443
         3.938000	    0.112625	    0.112625
         3.940000	    0.112807	    0.112807
         3.942000	    0.112989	    0.112989
         3.944000	    0.113171	    0.113171
         3.946000	    0.113353	    0.113353
         3.948000	    0.113535	    0.113535
         3.950000	    0.113718	    0.113718
         3.952000	    0.113900	    0.113900
         3.954000	    0.114083	    0.114083
         3.956000	    0.114265	    0.114265
         3.958000	    0.114448	    0.114448
         3.960000	    0.114631	    0.114631
         3.962000	    0.114814	    0.114814
         3.964000	    0.114998	    0.114998
         3.966000	    0.115181	    0.115181
         3.968000	    0.115364	    0.115364
         3.970000	    0.115548	    0.115548
         3.972000	    0.115731	    0.115731
         3.974000	    0.115915	    0.115915
         3.976000	    0.116099	    0.116099
         3.978000	    0.116283	    0.116283
         3.980000	    0.116467	    0.116467
         3.982000	    0.116651	    0.116651
         3.984000	    0.116835	    0.116835
         3.986000	    0.117019	    0.117019
         3.988000	    0.117204	    0.117204
         3.990000	    0.117388	    0.117388
         3.992000	    0.117572	    0.117572
         3.994000	    0.117757	    0.117757
         3.996000	    0.117941	    0.117941
         3.998000	    0.118126	    0.118126
         4.000000	    0.118311	    0.118311
         4.002000	    0.118496	    0.118496
         4.004000	    0.118681	    0.118681
         4.006000	    0.118866	    0.118866
         4.008000	    0.119051	    0.119051
         4.010000	    0.119236	    0.119236
         4.012000	    0.119421	    0.119421
         4.014000	    0.119606	    0.119606
         4.016000	    0.119791	    0.119791
         4.018000	    0.119976	    0.119976
         4.020000	    0.120162	    0.120162
         4.022000	    0.120347	    0.120347
         4.024000	    0.120532	    0.120532
         4.026000	    0.120718	    0.120718
         4.028000	    0.120904	    0.120904
         4.030000	    0.121089	    0.121089
         4.032000	    0.121275	    0.121275
         4.034000	    0.121460	    0.121460
         4.036000	    0.121646	    0.121646
         4.038000	    0.121831	    0.121831
         4.040000	    0.122017	    0.122017
         4.042000	    0.122202	    0.122202
         4.044000	    0.122388	    0.122388
         4.046000	    0.122574	    0.122574
         4.048000	    0.122760	    0.122760
         4.050000	    0.122945	    0.122945
         4.052000	    0.123131	    0.123131
         4.054000	    0.123317	    0.123317
         4.056000	    0.123502	    0.123502
         4.058000	    0.123688	    0.123688
         4.060000	    0.123874	    0.123874
         4.062000	    0.124059	    0.124059
         4.064000	    0.124245	    0.124245
         4.066000	    0.124431	    0.124431
         4.068000	    0.124616	    0.124616
         4.070000	    0.124802	    0.124802
         4.072000	    0.124988	    0.124988
         4.074000	    0.125174	    0.125174
         4.076000	    0.125359	    0.125359
         4.078000	    0.125544	    0.125544
         4.080000	    0.125730	    0.125730
         4.082000	    0.125915	    0.125915
         4.084000	    0.126101	    0.126101
         4.086000	    0.126286	    0.126286
         4.088000	    0.126472	    0.126472
         4.090000	    0.126657	    0.126657
         4.092000	    0.126842	    0.126842
         4.094000	    0.127028	    0.127028
         4.096000	    0.127213	    0.127213
         4.098000	    0.127399	    0.127399
         4.100000	    0.127584	    0.127584
         4.102000	    0.127769	    0.127769
         4.104000	    0.127954	    0.127954
         4.106000	    0.128139	    0.128139
         4.108000	    0.128324	    0.128324
         4.110000	    0.128508	    0.128508
         4.112000	    0.128693	    0.128693
         4.114000	    0.128878	    0.128878
         4.116000	    0.129063	    0.129063
         4.118000	    0.129247	    0.129247
         4.120000	    0.129432	    0.129432
         4.122000	    0.129616	    0.129616
         4.124000	    0.129801	    0.129801
         4.126000	    0.129985	    0.129985
         4.128000	    0.130169	    0.130169
         4.130000	    0.130353	    0.130353
         4.132000	    0.130537	    0.130537
         4.134000	    0.130720	    0.130720
         4.136000	    0.130904	    0.130904
         4.138000	    0.131088	    0.131088
         4.140000	    0.131271	    0.131271
         4.142000	    0.131455	    0.131455
         4.144000	    0.131638	    0.131638
         4.146000	    0.131821	    0.131821
         4.148000	    0.132004	    0.132004
         4.150000	    0.132187	    0.132187
         4.152000	    0.132369	    0.132369
         4.154000	    0.132552	    0.132552
         4.156000	    0.132735	    0.132735
         4.158000	    0.132917	    0.132917
         4.160000	    0.133099	    0.133099
         4.162000	    0.133282	    0.133282
         4.164000	    0.133464	    0.133464
         4.166000	    0.133645	    0.133645
         4.168000	    0.133827	    0.133827
         4.170000	    0.134009	    0.134009
         4.172000	    0.134191	    0.134191
         4.174000	    0.134372	    0.134372
         4.176000	    0.134553	    0.134553
         4.178000	    0.134734	    0.134734
         4.180000	    0.134914	    0.134914
         4.182000	    0.135095	    0.135095
         4.184000	    0.135275	    0.135275
         4.186000	    0.135456	    0.135456
         4.188000	    0.135636	    0.135636
         4.190000	    0.135816	    0.135816
         4.192000	    0.135996	    0.135996
         4.194000	    0.136175	    0.136175
         4.196000	    0.136355	    0.136355
         4.198000	    0.136534	    0.136534
         4.200000	    0.136713	    0.136713
         4.202000	    0.136892	    0.136892
         4.204000	    0.137071	    0.137071
         4.206000	    0.137249	    0.137249
         4.208000	    0.137427	    0.137427
         4.210000	    0.137605	    0.137605
         4.212000	    0.137783	    0.137783
         4.214000	    0.137960	    0.137960
         4.216000	    0.138138	    0.138138
         4.218000	    0.138315	    0.138315
         4.220000	    0.138492	    0.138492
         4.222000	    0.138669	    0.138669
         4.224000	    0.138845	    0.138845
         4.226000	    0.139021	    0.139021
         4.228000	    0.139197	    0.139197
         4.230000	    0.139373	    0.139373
         4.232000	    0.139548	    0.139548
         4.234000	    0.139724	    0.139724
         4.236000	    0.139899	    0.139899
         4.238000	    0.140073	    0.140073
         4.240000	    0.140248	    0.140248
         4.242000	    0.140422	    0.140422
         4.244000	    0.140596	    0.140596
         4.246000	    0.140770	    0.140770
         4.248000	    0.140944	    0.140944
         4.250000	    0.141117	    0.141117
         4.252000	    0.141290	    0.141290
         4.254000	    0.141463	    0.141463
         4.256000	    0.141635	    0.141635
         4.258000	    0.141807	    0.141807
         4.260000	    0.141979	    0.141979
         4.262000	    0.142150	    0.142150
         4.264000	    0.142322	    0.142322
         4.266000	    0.142493	    0.142493
         4.268000	    0.142663	    0.142663
         4.270000	    0.142834	    0.142834
         4.272000	    0.143004	    0.143004
         4.274000	    0.143174	    0.143174
         4.276000	    0.143344	    0.143344
         4.278000	    0.143513	    0.143513
         4.280000	    0.143682	    0.143682
         4.282000	    0.143850	    0.143850
         4.284000	    0.144018	    0.144018
         4.286000	    0.144186	    0.144186
         4.288000	    0.144354	    0.144354
         4.290000	    0.144521	    0.144521
         4.292000	    0.144688	    0.144688
         4.294000	    0.144854	    0.144854
         4.296000	    0.145021	    0.145021
         4.298000	    0.145187	    0.145187
         4.300000	    0.145352	    0.145352
         4.302000	    0.145518	    0.145518
         4.304000	    0.145683	    0.145683
         4.306000	    0.145847	    0.145847
         4.308000	    0.146011	    0.146011
         4.310000	    0.146175	    0.146175
         4.312000	    0.146338	    0.146338
         4.314000	    0.146502	    0.146502
         4.316000	    0.146664	    0.146664
         4.318000	    0.146826	    0.146826
         4.320000	    0.146988	    0.146988
         4.322000	    0.147150	    0.147150
         4.324000	    0.147311	    0.147311
         4.326000	    0.147472	    0.147472
         4.328000	    0.147633	    0.147633
         4.330000	    0.147793	    0.147793
         4.332000	    0.147953	    0.147953
         4.334000	    0.148112	    0.148112
         4.336000	    0.148271	    0.148271
         4.338000	    0.148429	    0.148429
         4.340000	    0.148587	    0.148587
         4.342000	    0.148745	    0.148745
         4.344000	    0.148902	    0.148902
         4.346000	    0.149059	    0.149059
         4.348000	    0.149215	    0.149215
         4.350000	    0.149371	    0.149371
         4.352000	    0.149527	    0.149527
         4.354000	    0.149682	    0.149682
         4.356000	    0.149837	    0.149837
         4.358000	    0.149991	    0.149991
         4.360000	    0.150145	    0.150145
         4.362000	    0.150299	    0.150299
         4.364000	    0.150452	    0.150452
         4.366000	    0.150605	    0.150605
         4.368000	    0.150757	    0.150757
         4.370000	    0.150909	    0.150909
         4.372000	    0.151060	    0.151060
         4.374000	    0.151210	    0.151210
         4.376000	    0.151360	    0.151360
         4.378000	    0.151510	    0.151510
         4.380000	    0.151660	    0.151660
         4.382000	    0.151808	    0.151808
         4.384000	    0.151957	    0.151957
         4.386000	    0.152105	    0.152105
         4.388000	    0.152252	    0.152252
         4.390000	    0.152399	    0.152399
         4.392000	    0.152546	    0.152546
         4.394000	    0.152692	    0.152692
         4.396000	    0.152838	    0.152838
         4.398000	    0.152983	    0.152983
         4.400000	    0.153127	    0.153127
         4.402000	    0.153271	    0.153271
         4.404000	    0.153415	    0.153415
         4.406000	    0.153558	    0.153558
         4.408000	    0.153700	    0.153700
         4.410000	    0.153842	    0.153842
         4.412000	    0.153983	    0.153983
         4.414000	    0.154124	    0.154124
         4.416000	    0.154265	    0.154265
         4.418000	    0.154405	    0.154405
         4.420000	    0.154544	    0.154544
         4.422000	    0.154683	    0.154683
         4.424000	    0.154821	    0.154821
         4.426000	    0.154959	    0.154959
         4.428000	    0.155097	    0.155097
         4.430000	    0.155234	    0.155234
         4.432000	    0.155370	    0.155370
         4.434000	    0.155506	    0.155506
         4.436000	    0.155641	    0.155641
         4.438000	    0.155775	    0.155775
         4.440000	    0.155909	    0.155909
         4.442000	    0.156042	    0.156042
         4.444000	    0.156175	    0.156175
         4.446000	    0.156307	    0.156307
         4.448000	    0.156439	    0.156439
         4.450000	    0.156570	    0.156570
         4.452000	    0.156700	    0.156700
         4.454000	    0.156830	    0.156830
         4.456000	    0.156960	    0.156960
         4.458000	    0.157089	    0.157089
         4.460000	    0.157217	    0.157217
         4.462000	    0.157345	    0.157345
         4.464000	    0.157472	    0.157472
         4.466000	    0.157599	    0.157599
         4.468000	    0.157725	    0.157725
         4.470000	    0.157850	    0.157850
         4.472000	    0.157974	    0.157974
         4.474000	    0.158098	    0.158098
         4.476000	    0.158221	    0.158221
         4.478000	    0.158344	    0.158344
         4.480000	    0.158466	    0.158466
         4.482000	    0.158588	    0.158588
         4.484000	    0.158709	    0.158709
         4.486000	    0.158829	    0.158829
         4.488000	    0.158949	    0.158949
         4.490000	    0.159068	    0.159068
         4.492000	    0.159186	    0.159186
         4.494000	    0.159304	    0.159304
         4.496000	    0.159422	    0.159422
         4.498000	    0.159538	    0.159538
         4.500000	    0.159654	    0.159654
         4.502000	    0.159770	    0.159770
         4.504000	    0.159884	    0.159884
         4.506000	    0.159998	    0.159998
         4.508000	    0.160111	    0.160111
         4.510000	    0.160224	    0.160224
         4.512000	    0.160335	    0.160335
         4.514000	    0.160447	    0.160447
         4.516000	    0.160557	    0.160557
         4.518000	    0.160667	    0.160667
         4.520000	    0.160776	    0.160776
         4.522000	    0.160885	    0.160885
         4.524000	    0.160993	    0.160993
         4.526000	    0.161100	    0.161100
         4.528000	    0.161207	    0.161207
         4.530000	    0.161313	    0.161313
         4.532000	    0.161418	    0.161418
         4.534000	    0.161522	    0.161522
         4.536000	    0.161626	    0.161626
         4.538000	    0.161730	    0.161730
         4.540000	    0.161832	    0.161832
         4.542000	    0.161933	    0.161933
         4.544000	    0.162034	    0.162034
         4.546000	    0.162134	    0.162134
         4.548000	    0.162234	    0.162234
         4.550000	    0.162332	    0.162332
         4.552000	    0.162430	    0.162430
         4.554000	    0.162528	    0.162528
         4.556000	    0.162624	    0.162624
         4.558000	    0.162720	    0.162720
         4.560000	    0.162816	    0.162816
         4.562000	    0.162910	    0.162910
         4.564000	    0.163004	    0.163004
         4.566000	    0.163097	    0.163097
         4.568000	    0.163189	    0.163189
         4.570000	    0.163281	    0.163281
         4.572000	    0.163372	    0.163372
         4.574000	    0.163462	    0.163462
         4.576000	    0.163552	    0.163552
         4.578000	    0.163640	    0.163640
         4.580000	    0.163728	    0.163728
         4.582000	    0.163815	    0.163815
         4.584000	    0.163902	    0.163902
         4.586000	    0.163987	    0.163987
         4.588000	    0.164072	    0.164072
         4.590000	    0.164156	    0.164156
         4.592000	    0.164239	    0.164239
         4.594000	    0.164321	    0.164321
         4.596000	    0.164403	    0.164403
         4.598000	    0.164484	    0.164484
         4.600000	    0.164564	    0.164564
         4.602000	    0.164644	    0.164644
         4.604000	    0.164722	    0.164722
         4.606000	    0.164800	    0.164800
         4.608000	    0.164877	    0.164877
         4.610000	    0.164954	    0.164954
         4.612000	    0.165029	    0.165029
         4.614000	    0.165104	    0.165104
         4.616000	    0.165178	    0.165178
         4.618000	    0.165251	    0.165251
         4.620000	    0.165324	    0.165324
         4.622000	    0.165395	    0.165395
         4.624000	    0.165466	    0.165466
         4.626000	    0.165537	    0.165537
         4.628000	    0.165606	    0.165606
         4.630000	    0.165674	    0.165674
         4.632000	    0.165742	    0.165742
         4.634000	    0.165808	    0.165808
         4.636000	    0.165874	    0.165874
         4.638000	    0.165939	    0.165939
         4.640000	    0.166003	    0.166003
         4.642000	    0.166066	    0.166066
         4.644000	    0.166129	    0.166129
         4.646000	    0.166191	    0.166191
         4.648000	    0.166252	    0.166252
         4.650000	    0.166312	    0.166312
         4.652000	    0.166371	    0.166371
         4.654000	    0.166430	    0.166430
         4.656000	    0.166487	    0.166487
         4.658000	    0.166544	    0.166544
         4.660000	    0.166600	    0.166600
         4.662000	    0.166656	    0.166656
         4.664000	    0.166710	    0.166710
         4.666000	    0.166763	    0.166763
         4.668000	    0.166816	    0.166816
         4.670000	    0.166868	    0.166868
         4.672000	    0.166919	    0.166919
         4.674000	    0.166969	    0.166969
         4.676000	    0.167019	    0.167019
         4.678000	    0.167067	    0.167067
         4.680000	    0.167115	    0.167115
         4.682000	    0.167161	    0.167161
         4.684000	    0.167207	    0.167207
         4.686000	    0.167251	    0.167251
         4.688000	    0.167295	    0.167295
         4.690000	    0.167339	    0.167339
         4.692000	    0.167381	    0.167381
         4.694000	    0.167422	    0.167422
         4.696000	    0.167463	    0.167463
         4.698000	    0.167502	    0.167502
         4.700000	    0.167541	    0.167541
         4.702000	    0.167579	    0.167579
         4.704000	    0.167616	    0.167616
         4.706000	    0.167652	    0.167652
         4.708000	    0.167688	    0.167688
         4.710000	    0.167722	    0.167722
         4.712000	    0.167756	    0.167756
         4.714000	    0.167788	    0.167788
         4.716000	    0.167820	    0.167820
         4.718000	    0.167851	    0.167851
         4.720000	    0.167881	    0.167881
         4.722000	    0.167911	    0.167911
         4.724000	    0.167939	    0.167939
         4.726000	    0.167966	    0.167966
         4.728000	    0.167993	    0.167993
         4.730000	    0.168019	    0.168019
         4.732000	    0.168044	    0.168044
         4.734000	    0.168067	    0.168067
         4.736000	    0.168090	    0.168090
         4.738000	    0.168112	    0.168112
         4.740000	    0.168133	    0.168133
         4.742000	    0.168153	    0.168153
         4.744000	    0.168172	    0.168172
         4.746000	    0.168190	    0.168190
         4.748000	    0.168208	    0.168208
         4.750000	    0.168224	    0.168224
         4.752000	    0.168240	    0.168240
         4.754000	    0.168254	    0.168254
         4.756000	    0.168268	    0.168268
         4.758000	    0.168281	    0.168281
         4.760000	    0.168293	    0.168293
         4.762000	    0.168304	    0.168304
         4.764000	    0.168314	    0.168314
         4.766000	    0.168323	    0.168323
         4.768000	    0.168331	    0.168331
         4.770000	    0.168339	    0.168339
         4.772000	    0.168345	    0.168345
         4.774000	    0.168351	    0.168351
         4.776000	    0.168355	    0.168355
         4.778000	    0.168359	    0.168359
         4.780000	    0.168362	    0.168362
         4.782000	    0.168364	    0.168364
         4.784000	    0.168365	    0.168365
         4.786000	    0.168365	    0.168365
         4.788000	    0.168364	    0.168364
         4.790000	    0.168362	    0.168362
         4.792000	    0.168360	    0.168360
         4.794000	    0.168356	    0.168356
         4.796000	    0.168352	    0.168352
         4.798000	    0.168346	    0.168346
         4.800000	    0.168340	    0.168340
         4.802000	    0.168333	    0.168333
         4.804000	    0.168324	    0.168324
         4.806000	    0.168315	    0.168315
         4.808000	    0.168305	    0.168305
         4.810000	    0.168293	    0.168293
         4.812000	    0.168281	    0.168281
         4.814000	    0.168268	    0.168268
         4.816000	    0.168254	    0.168254
         4.818000	    0.168239	    0.168239
         4.820000	    0.168223	    0.168223
         4.822000	    0.168206	    0.168206
         4.824000	    0.168188	    0.168188
         4.826000	    0.168169	    0.168169
         4.828000	    0.168150	    0.168150
         4.830000	    0.168129	    0.168129
         4.832000	    0.168107	    0.168107
         4.834000	    0.168085	    0.168085
         4.836000	    0.168061	    0.168061
         4.838000	    0.168037	    0.168037
         4.840000	    0.168012	    0.168012
         4.842000	    0.167985	    0.167985
         4.844000	    0.167958	    0.167958
         4.846000	    0.167930	    0.167930
         4.848000	    0.167901	    0.167901
         4.850000	    0.167871	    0.167871
         4.852000	    0.167840	    0.167840
         4.854000	    0.167808	    0.167808
         4.856000	    0.167776	    0.167776
         4.858000	    0.167742	    0.167742
         4.860000	    0.167707	    0.167707
         4.862000	    0.167672	    0.167672
         4.864000	    0.167635	    0.167635
         4.866000	    0.167598	    0.167598
         4.868000	    0.167559	    0.167559
         4.870000	    0.167520	    0.167520
         4.872000	    0.167480	    0.167480
         4.874000	    0.167438	    0.167438
         4.876000	    0.167396	    0.167396
         4.878000	    0.167353	    0.167353
         4.880000	    0.167309	    0.167309
         4.882000	    0.167264	    0.167264
         4.884000	    0.167218	    0.167218
         4.886000	    0.167171	    0.167171
         4.888000	    0.167124	    0.167124
         4.890000	    0.167075	    0.167075
         4.892000	    0.167025	    0.167025
         4.894000	    0.166975	    0.166975
         4.896000	    0.166923	    0.166923
         4.898000	    0.166871	    0.166871
         4.900000	    0.166817	    0.166817
         4.902000	    0.166763	    0.166763
         4.904000	    0.166708	    0.166708
         4.906000	    0.166651	    0.166651
         4.908000	    0.166594	    0.166594
         4.910000	    0.166535	    0.166535
         4.912000	    0.166476	    0.166476
         4.914000	    0.166416	    0.166416
         4.916000	    0.166354	    0.166354
         4.918000	    0.166292	    0.166292
         4.920000	    0.166229	    0.166229
         4.922000	    0.166165	    0.166165
         4.924000	    0.166100	    0.166100
         4.926000	    0.166034	    0.166034
         4.928000	    0.165967	    0.165967
         4.930000	    0.165900	    0.165900
         4.932000	    0.165831	    0.165831
         4.934000	    0.165761	    0.165761
         4.936000	    0.165691	    0.165691
         4.938000	    0.165619	    0.165619
         4.940000	    0.165547	    0.165547
         4.942000	    0.165474	    0.165474
         4.944000	    0.165399	    0.165399
         4.946000	    0.165324	    0.165324
         4.948000	    0.165248	    0.165248
         4.950000	    0.165171	    0.165171
         4.952000	    0.165093	    0.165093
         4.954000	    0.165014	    0.165014
         4.956000	    0.164935	    0.164935
         4.958000	    0.164854	    0.164854
         4.960000	    0.164772	    0.164772
         4.962000	    0.164690	    0.164690
         4.964000	    0.164606	    0.164606
         4.966000	    0.164522	    0.164522
         4.968000	    0.164437	    0.164437
         4.970000	    0.164350	    0.164350
         4.972000	    0.164263	    0.164263
         4.974000	    0.164175	    0.164175
         4.976000	    0.164086	    0.164086
         4.978000	    0.163997	    0.163997
         4.980000	    0.163906	    0.163906
         4.982000	    0.163814	    0.163814
         4.984000	    0.163722	    0.163722
         4.986000	    0.163628	    0.163628
         4.988000	    0.163534	    0.163534
         4.990000	    0.163438	    0.163438
         4.992000	    0.163342	    0.163342
         4.994000	    0.163245	    0.163245
         4.996000	    0.163147	    0.163147
         4.998000	    0.163048	    0.163048
         5.000000	    0.162948	    0.162948
         5.002000	    0.162848	    0.162848
         5.004000	    0.162746	    0.162746
         5.006000	    0.162644	    0.162644
         5.008000	    0.162540	    0.162540
         5.010000	    0.162436	    0.162436
         5.012000	    0.162331	    0.162331
         5.014000	    0.162225	    0.162225
         5.016000	    0.162118	    0.162118
         5.018000	    0.162010	    0.162010
         5.020000	    0.161902	    0.161902
         5.022000	    0.161792	    0.161792
         5.024000	    0.161682	    0.161682
         5.026000	    0.161570	    0.161570
         5.028000	    0.161458	    0.161458
         5.030000	    0.161345	    0.161345
         5.032000	    0.161231	    0.161231
         5.034000	    0.161116	    0.161116
         5.036000	    0.161001	    0.161001
         5.038000	    0.160884	    0.160884
         5.040000	    0.160766	    0.160766
         5.042000	    0.160648	    0.160648
         5.044000	    0.160529	    0.160529
         5.046000	    0.160409	    0.160409
         5.048000	    0.160288	    0.160288
         5.050000	    0.160166	    0.160166
         5.052000	    0.160044	    0.160044
         5.054000	    0.159920	    0.159920
         5.056000	    0.159796	    0.159796
         5.058000	    0.159671	    0.159671
         5.060000	    0.159545	    0.159545
         5.062000	    0.159418	    0.159418
         5.064000	    0.159290	    0.159290
         5.066000	    0.159162	    0.159162
         5.068000	    0.159032	    0.159032
         5.070000	    0.158902	    0.158902
         5.072000	    0.158771	    0.158771
         5.074000	    0.158639	    0.158639
         5.076000	    0.158507	    0.158507
         5.078000	    0.158373	    0.158373
         5.080000	    0.158239	    0.158239
         5.082000	    0.158103	    0.158103
         5.084000	    0.157967	    0.157967
         5.086000	    0.157830	    0.157830
         5.088000	    0.157693	    0.157693
         5.090000	    0.157554	    0.157554
         5.092000	    0.157415	    0.157415
         5.094000	    0.157275	    0.157275
         5.096000	    0.157134	    0.157134
         5.098000	    0.156992	    0.156992
         5.100000	    0.156850	    0.156850
         5.102000	    0.156706	    0.156706
         5.104000	    0.156562	    0.156562
         5.106000	    0.156417	    0.156417
         5.108000	    0.156271	    0.156271
         5.110000	    0.156125	    0.156125
         5.112000	    0.155977	    0.155977
         5.114000	    0.155829	    0.155829
         5.116000	    0.155680	    0.155680
         5.118000	    0.155530	    0.155530
         5.120000	    0.155380	    0.155380
         5.122000	    0.155229	    0.155229
         5.124000	    0.155076	    0.155076
         5.126000	    0.154924	    0.154924
         5.128000	    0.154770	    0.154770
         5.130000	    0.154616	    0.154616
         5.132000	    0.154460	    0.154460
         5.134000	    0.154304	    0.154304
         5.136000	    0.154148	    0.154148
         5.138000	    0.153990	    0.153990
         5.140000	    0.153832	    0.153832
         5.142000	    0.153673	    0.153673
         5.144000	    0.153513	    0.153513
         5.146000	    0.153353	    0.153353
         5.148000	    0.153191	    0.153191
         5.150000	    0.153029	    0.153029
         5.152000	    0.152867	    0.152867
         5.154000	    0.152703	    0.152703
         5.156000	    0.152539	    0.152539
         5.158000	    0.152374	    0.152374
         5.160000	    0.152208	    0.152208
         5.162000	    0.152042	    0.152042
         5.164000	    0.151875	    0.151875
         5.166000	    0.151707	    0.151707
         5.168000	    0.151538	    0.151538
         5.170000	    0.151369	    0.151369
         5.172000	    0.151199	    0.151199
         5.174000	    0.151028	    0.151028
         5.176000	    0.150857	    0.150857
         5.178000	    0.150685	    0.150685
         5.180000	    0.150512	    0.150512
         5.182000	    0.150338	    0.150338
         5.184000	    0.150164	    0.150164
         5.186000	    0.149989	    0.149989
         5.188000	    0.149814	    0.149814
         5.190000	    0.149638	    0.149638
         5.192000	    0.149461	    0.149461
         5.194000	    0.149284	    0.149284
         5.196000	    0.149106	    0.149106
         5.198000	    0.148927	    0.148927
         5.200000	    0.148747	    0.148747
         5.202000	    0.148567	    0.148567
         5.204000	    0.148387	    0.148387
         5.206000	    0.148205	    0.148205
         5.208000	    0.148023	    0.148023
         5.210000	    0.147840	    0.147840
         5.212000	    0.147657	    0.147657
         5.214000	    0.147473	    0.147473
         5.216000	    0.147288	    0.147288
         5.218000	    0.147103	    0.147103
         5.220000	    0.146917	    0.146917
         5.222000	    0.146730	    0.146730
         5.224000	    0.146543	    0.146543
         5.226000	    0.146355	    0.146355
         5.228000	    0.146166	    0.146166
         5.230000	    0.145977	    0.145977
         5.232000	    0.145788	    0.145788
         5.234000	    0.145597	    0.145597
         5.236000	    0.145406	    0.145406
         5.238000	    0.145215	    0.145215
         5.240000	    0.145022	    0.145022
         5.242000	    0.144829	    0.144829
         5.244000	    0.144636	    0.144636
         5.246000	    0.144442	    0.144442
         5.248000	    0.144247	    0.144247
         5.250000	    0.144052	    0.144052
         5.252000	    0.143856	    0.143856
         5.254000	    0.143660	    0.143660
         5.256000	    0.143462	    0.143462
         5.258000	    0.143265	    0.143265
         5.260000	    0.143067	    0.143067
         5.262000	    0.142868	    0.142868
         5.264000	    0.142668	    0.142668
         5.266000	    0.142469	    0.142469
         5.268000	    0.142268	    0.142268
         5.270000	    0.142067	    0.142067
         5.272000	    0.141865	    0.141865
         5.274000	    0.141663	    0.141663
         5.276000	    0.141460	    0.141460
         5.278000	    0.141257	    0.141257
         5.280000	    0.141054	    0.141054
         5.282000	    0.140850	    0.140850
         5.284000	    0.140645	    0.140645
         5.286000	    0.140440	    0.140440
         5.288000	    0.140235	    0.140235
         5.290000	    0.140028	    0.140028
         5.292000	    0.139822	    0.139822
         5.294000	    0.139614	    0.139614
         5.296000	    0.139407	    0.139407
         5.298000	    0.139199	    0.139199
         5.300000	    0.138990	    0.138990
         5.302000	    0.138781	    0.138781
         5.304000	    0.138571	    0.138571
         5.306000	    0.138360	    0.138360
         5.308000	    0.138150	    0.138150
         5.310000	    0.137939	    0.137939
         5.312000	    0.137727	    0.137727
         5.314000	    0.137515	    0.137515
         5.316000	    0.137302	    0.137302
         5.318000	    0.137089	    0.137089
         5.320000	    0.136875	    0.136875
         5.322000	    0.136661	    0.136661
         5.324000	    0.136446	    0.136446
         5.326000	    0.136231	    0.136231
         5.328000	    0.136016	    0.136016
         5.330000	    0.135800	    0.135800
         5.332000	    0.135583	    0.135583
         5.334000	    0.135366	    0.135366
         5.336000	    0.135149	    0.135149
         5.338000	    0.134931	    0.134931
         5.340000	    0.134713	    0.134713
         5.342000	    0.134495	    0.134495
         5.344000	    0.134276	    0.134276
         5.346000	    0.134057	    0.134057
         5.348000	    0.133837	    0.133837
         5.350000	    0.133617	    0.133617
         5.352000	    0.133397	    0.133397
         5.354000	    0.133176	    0.133176
         5.356000	    0.132955	    0.132955
         5.358000	    0.132733	    0.132733
         5.360000	    0.132511	    0.132511
         5.362000	    0.132288	    0.132288
         5.364000	    0.132065	    0.132065
         5.366000	    0.131842	    0.131842
         5.368000	    0.131619	    0.131619
         5.370000	    0.131395	    0.131395
         5.372000	    0.131170	    0.131170
         5.374000	    0.130945	    0.130945
         5.376000	    0.130720	    0.130720
         5.378000	    0.130495	    0.130495
         5.380000	    0.130269	    0.130269
         5.382000	    0.130042	    0.130042
         5.384000	    0.129816	    0.129816
         5.386000	    0.129589	    0.129589
         5.388000	    0.129361	    0.129361
         5.390000	    0.129134	    0.129134
         5.392000	    0.128906	    0.128906
         5.394000	    0.128678	    0.128678
         5.396000	    0.128450	    0.128450
         5.398000	    0.128221	    0.128221
         5.400000	    0.127992	    0.127992
         5.402000	    0.127763	    0.127763
         5.404000	    0.127533	    0.127533
         5.406000	    0.127303	    0.127303
         5.408000	    0.127073	    0.127073
         5.410000	    0.126842	    0.126842
         5.412000	    0.126611	    0.126611
         5.414000	    0.126380	    0.126380
         5.416000	    0.126149	    0.126149
         5.418000	    0.125917	    0.125917
         5.420000	    0.125685	    0.125685
         5.422000	    0.125452	    0.125452
         5.424000	    0.125220	    0.125220
         5.426000	    0.124987	    0.124987
         5.428000	    0.124753	    0.124753
         5.430000	    0.124520	    0.124520
         5.432000	    0.124286	    0.124286
         5.434000	    0.124052	    0.124052
         5.436000	    0.123818	    0.123818
         5.438000	    0.123584	    0.123584
         5.440000	    0.123350	    0.123350
         5.442000	    0.123115	    0.123115
         5.444000	    0.122880	    0.122880
         5.446000	    0.122645	    0.122645
         5.448000	    0.122409	    0.122409
         5.450000	    0.122173	    0.122173
         5.452000	    0.121937	    0.121937
         5.454000	    0.121701	    0.121701
         5.456000	    0.121465	    0.121465
         5.458000	    0.121228	    0.121228
         5.460000	    0.120991	    0.120991
         5.462000	    0.120754	    0.120754
         5.464000	    0.120517	    0.120517
         5.466000	    0.120279	    0.120279
         5.468000	    0.120042	    0.120042
         5.470000	    0.119804	    0.119804
         5.472000	    0.119566	    0.119566
         5.474000	    0.119327	    0.119327
         5.476000	    0.119089	    0.119089
         5.478000	    0.118851	    0.118851
         5.480000	    0.118612	    0.118612
         5.482000	    0.118374	    0.118374
         5.484000	    0.118135	    0.118135
         5.486000	    0.117896	    0.117896
         5.488000	    0.117657	    0.117657
         5.490000	    0.117417	    0.117417
         5.492000	    0.117178	    0.117178
         5.494000	    0.116938	    0.116938
         5.496000	    0.116698	    0.116698
         5.498000	    0.116458	    0.116458
         5.500000	    0.116218	    0.116218
         5.502000	    0.115978	    0.115978
         5.504000	    0.115737	    0.115737
         5.506000	    0.115497	    0.115497
         5.508000	    0.115256	    0.115256
         5.510000	    0.115015	    0.115015
         5.512000	    0.114775	    0.114775
         5.514000	    0.114534	    0.114534
         5.516000	    0.114293	    0.114293
         5.518000	    0.114052	    0.114052
         5.520000	    0.113811	    0.113811
         5.522000	    0.113570	    0.113570
         5.524000	    0.113329	    0.113329
         5.526000	    0.113087	    0.113087
         5.528000	    0.112846	    0.112846
         5.530000	    0.112604	    0.112604
         5.532000	    0.112362	    0.112362
         5.534000	    0.112121	    0.112121
         5.536000	    0.111879	    0.111879
         5.538000	    0.111637	    0.111637
         5.540000	    0.111395	    0.111395
         5.542000	    0.111154	    0.111154
         5.544000	    0.110912	    0.110912
         5.546000	    0.110670	    0.110670
         5.548000	    0.110428	    0.110428
         5.550000	    0.110186	    0.110186
         5.552000	    0.109944	    0.109944
         5.554000	    0.109702	    0.109702
         5.556000	    0.109459	    0.109459
         5.558000	    0.109217	    0.109217
         5.560000	    0.108975	    0.108975
         5.562000	    0.108733	    0.108733
         5.564000	    0.108490	    0.108490
         5.566000	    0.108248	    0.108248
         5.568000	    0.108006	    0.108006
         5.570000	    0.107764	    0.107764
         5.572000	    0.107522	    0.107522
         5.574000	    0.107279	    0.107279
         5.576000	    0.107037	    0.107037
         5.578000	    0.106795	    0.106795
         5.580000	    0.106553	    0.106553
         5.582000	    0.106311	    0.106311
         5.584000	    0.106068	    0.106068
         5.586000	    0.105826	    0.105826
         5.588000	    0.105584	    0.105584
         5.590000	    0.105342	    0.105342
         5.592000	    0.105100	    0.105100
         5.594000	    0.104857	    0.104857
         5.596000	    0.104615	    0.104615
         5.598000	    0.104374	    0.104374
         5.600000	    0.104132	    0.104132
         5.602000	    0.103890	    0.103890
         5.604000	    0.103648	    0.103648
         5.606000	    0.103407	    0.103407
         5.608000	    0.103165	    0.103165
         5.610000	    0.102923	    0.102923
         5.612000	    0.102682	    0.102682
         5.614000	    0.102440	    0.102440
         5.616000	    0.102199	    0.102199
         5.618000	    0.101957	    0.101957
         5.620000	    0.101716	    0.101716
         5.622000	    0.101474	    0.101474
         5.624000	    0.101233	    0.101233
         5.626000	    0.100992	    0.100992
         5.628000	    0.100751	    0.100751
         5.630000	    0.100511	    0.100511
         5.632000	    0.100270	    0.100270
         5.634000	    0.100029	    0.100029
         5.636000	    0.099789	    0.099789
         5.638000	    0.099548	    0.099548
         5.640000	    0.099308	    0.099308
         5.642000	    0.099067	    0.099067
         5.644000	    0.098827	    0.098827
         5.646000	    0.098587	    0.098587
         5.648000	    0.098347	    0.098347
         5.650000	    0.098108	    0.098108
         5.652000	    0.097868	    0.097868
         5.654000	    0.097629	    0.097629
         5.656000	    0.097389	    0.097389
         5.658000	    0.097150	    0.097150
         5.660000	    0.096911	    0.096911
         5.662000	    0.096672	    0.096672
         5.664000	    0.096433	    0.096433
         5.666000	    0.096194	    0.096194
         5.668000	    0.095956	    0.095956
         5.670000	    0.095717	    0.095717
         5.672000	    0.095479	    0.095479
         5.674000	    0.095241	    0.095241
         5.676000	    0.095003	    0.095003
         5.678000	    0.094765	    0.094765
         5.680000	    0.094528	    0.094528
         5.682000	    0.094290	    0.094290
         5.684000	    0.094053	    0.094053
         5.686000	    0.093816	    0.093816
         5.688000	    0.093579	    0.093579
         5.690000	    0.093342	    0.093342
         5.692000	    0.093105	    0.093105
         5.694000	    0.092869	    0.092869
         5.696000	    0.092632	    0.092632
         5.698000	    0.092397	    0.092397
         5.700000	    0.092161	    0.092161
         5.702000	    0.091925	    0.091925
         5.704000	    0.091690	    0.091690
         5.706000	    0.091454	    0.091454
         5.708000	    0.091219	    0.091219
         5.710000	    0.090984	    0.090984
         5.712000	    0.090750	    0.090750
         5.714000	    0.090515	    0.090515
         5.716000	    0.090281	    0.090281
         5.718000	    0.090047	    0.090047
         5.720000	    0.089813	    0.089813
         5.722000	    0.089580	    0.089580
         5.724000	    0.089347	    0.089347
         5.726000	    0.089113	    0.089113
         5.728000	    0.088881	    0.088881
         5.730000	    0.088648	    0.088648
         5.732000	    0.088415	    0.088415
         5.734000	    0.088183	    0.088183
         5.736000	    0.087951	    0.087951
         5.738000	    0.087719	    0.087719
         5.740000	    0.087488	    0.087488
         5.742000	    0.087257	    0.087257
         5.744000	    0.087026	    0.087026
         5.746000	    0.086795	    0.086795
         5.748000	    0.086564	    0.086564
         5.750000	    0.086334	    0.086334
         5.752000	    0.086104	    0.086104
         5.754000	    0.085874	    0.085874
         5.756000	    0.085644	    0.085644
         5.758000	    0.085415	    0.085415
         5.760000	    0.085186	    0.085186
         5.762000	    0.084958	    0.084958
         5.764000	    0.084729	    0.084729
         5.766000	    0.084501	    0.084501
         5.768000	    0.084273	    0.084273
         5.770000	    0.084045	    0.084045
         5.772000	    0.083818	    0.083818
         5.774000	    0.083591	    0.083591
         5.776000	    0.083364	    0.083364
         5.778000	    0.083138	    0.083138
         5.780000	    0.082912	    0.082912
         5.782000	    0.082686	    0.082686
         5.784000	    0.082460	    0.082460
         5.786000	    0.082235	    0.082235
         5.788000	    0.082010	    0.082010
         5.790000	    0.081785	    0.081785
         5.792000	    0.081560	    0.081560
         5.794000	    0.081336	    0.081336
         5.796000	    0.081112	    0.081112
         5.798000	    0.080889	    0.080889
         5.800000	    0.080665	    0.080665
         5.802000	    0.080442	    0.080442
         5.804000	    0.080220	    0.080220
         5.806000	    0.079997	    0.079997
         5.808000	    0.079775	    0.079775
         5.810000	    0.079553	    0.079553
         5.812000	    0.079331	    0.079331
         5.814000	    0.079110	    0.079110
         5.816000	    0.078889	    0.078889
         5.818000	    0.078669	    0.078669
         5.820000	    0.078448	    0.078448
         5.822000	    0.078228	    0.078228
         5.824000	    0.078009	    0.078009
         5.826000	    0.077789	    0.077789
         5.828000	    0.077570	    0.077570
         5.830000	    0.077352	    0.077352
         5.832000	    0.077134	    0.077134
         5.834000	    0.076916	    0.076916
         5.836000	    0.076698	    0.076698
         5.838000	    0.076481	    0.076481
         5.840000	    0.076264	    0.076264
         5.842000	    0.076047	    0.076047
         5.844000	    0.075831	    0.075831
         5.846000	    0.075616	    0.075616
         5.848000	    0.075400	    0.075400
         5.850000	    0.075185	    0.075185
         5.852000	    0.074970	    0.074970
         5.854000	    0.074755	    0.074755
         5.856000	    0.074541	    0.074541
         5.858000	    0.074327	    0.074327
         5.860000	    0.074113	    0.074113
         5.862000	    0.073900	    0.073900
         5.864000	    0.073687	    0.073687
         5.866000	    0.073475	    0.073475
         5.868000	    0.073263	    0.073263
         5.870000	    0.073051	    0.073051
         5.872000	    0.072839	    0.072839
         5.874000	    0.072628	    0.072628
         5.876000	    0.072418	    0.072418
         5.878000	    0.072207	    0.072207
         5.880000	    0.071997	    0.071997
         5.882000	    0.071788	    0.071788
         5.884000	    0.071579	    0.071579
         5.886000	    0.071370	    0.071370
         5.888000	    0.071161	    0.071161
         5.890000	    0.070953	    0.070953
         5.892000	    0.070745	    0.070745
         5.894000	    0.070538	    0.070538
         5.896000	    0.070331	    0.070331
         5.898000	    0.070124	    0.070124
         5.900000	    0.069918	    0.069918
         5.902000	    0.069712	    0.069712
         5.904000	    0.069506	    0.069506
         5.906000	    0.069301	    0.069301
         5.908000	    0.069097	    0.069097
         5.910000	    0.068892	    0.068892
         5.912000	    0.068688	    0.068688
         5.914000	    0.068485	    0.068485
         5.916000	    0.068281	    0.068281
         5.918000	    0.068078	    0.068078
         5.920000	    0.067876	    0.067876
         5.922000	    0.067674	    0.067674
         5.924000	    0.067472	    0.067472
         5.926000	    0.067271	    0.067271
         5.928000	    0.067070	    0.067070
         5.930000	    0.066869	    0.066869
         5.932000	    0.066669	    0.066669
         5.934000	    0.066469	    0.066469
         5.936000	    0.066270	    0.066270
         5.938000	    0.066071	    0.066071
         5.940000	    0.065873	    0.065873
         5.942000	    0.065674	    0.065674
         5.944000	    0.065476	    0.065476
         5.946000	    0.065279	    0.065279
         5.948000	    0.065082	    0.065082
         5.950000	    0.064885	    0.064885
         5.952000	    0.064689	    0.064689
         5.954000	    0.064493	    0.064493
         5.956000	    0.064298	    0.064298
         5.958000	    0.064102	    0.064102
         5.960000	    0.063907	    0.063907
         5.962000	    0.063713	    0.063713
         5.964000	    0.063519	    0.063519
         5.966000	    0.063326	    0.063326
         5.968000	    0.063133	    0.063133
         5.970000	    0.062940	    0.062940
         5.972000	    0.062748	    0.062748
         5.974000	    0.062556	    0.062556
         5.976000	    0.062364	    0.062364
         5.978000	    0.062173	    0.062173
         5.980000	    0.061982	    0.061982
         5.982000	    0.061792	    0.061792
         5.984000	    0.061602	    0.061602
         5.986000	    0.061412	    0.061412
         5.988000	    0.061223	    0.061223
         5.990000	    0.061034	    0.061034
         5.992000	    0.060846	    0.060846
         5.994000	    0.060658	    0.060658
         5.996000	    0.060471	    0.060471
         5.998000	    0.060284	    0.060284
         6.000000	    0.060097	    0.060097
         6.002000	    0.059910	    0.059910
         6.004000	    0.059724	    0.059724
         6.006000	    0.059539	    0.059539
         6.008000	    0.059354	    0.059354
         6.010000	    0.059169	    0.059169
         6.012000	    0.058985	    0.058985
         6.014000	    0.058800	    0.058800
         6.016000	    0.058617	    0.058617
         6.018000	    0.058434	    0.058434
         6.020000	    0.058251	    0.058251
         6.022000	    0.058069	    0.058069
         6.024000	    0.057887	    0.057887
         6.026000	    0.057705	    0.057705
         6.028000	    0.057525	    0.057525
         6.030000	    0.057344	    0.057344
         6.032000	    0.057164	    0.057164
         6.034000	    0.056984	    0.056984
         6.036000	    0.056804	    0.056804
         6.038000	    0.056625	    0.056625
         6.040000	    0.056447	    0.056447
         6.042000	    0.056269	    0.056269
         6.044000	    0.056091	    0.056091
         6.046000	    0.055913	    0.055913
         6.048000	    0.055736	    0.055736
         6.050000	    0.055559	    0.055559
         6.052000	    0.055383	    0.055383
         6.054000	    0.055207	    0.055207
         6.056000	    0.055032	    0.055032
         6.058000	    0.054857	    0.054857
         6.060000	    0.054682	    0.054682
         6.062000	    0.054508	    0.054508
         6.064000	    0.054334	    0.054334
         6.066000	    0.054160	    0.054160
         6.068000	    0.053987	    0.053987
         6.070000	    0.053815	    0.053815
         6.072000	    0.053642	    0.053642
         6.074000	    0.053471	    0.053471
         6.076000	    0.053300	    0.053300
         6.078000	    0.053129	    0.053129
         6.080000	    0.052958	    0.052958
         6.082000	    0.052788	    0.052788
         6.084000	    0.052618	    0.052618
         6.086000	    0.052448	    0.052448
         6.088000	    0.052279	    0.052279
         6.090000	    0.052111	    0.052111
         6.092000	    0.051943	    0.051943
         6.094000	    0.051775	    0.051775
         6.096000	    0.051608	    0.051608
         6.098000	    0.051441	    0.051441
         6.100000	    0.051275	    0.051275
         6.102000	    0.051108	    0.051108
         6.104000	    0.050943	    0.050943
         6.106000	    0.050777	    0.050777
         6.108000	    0.050612	    0.050612
         6.110000	    0.050448	    0.050448
         6.112000	    0.050284	    0.050284
         6.114000	    0.050120	    0.050120
         6.116000	    0.049956	    0.049956
         6.118000	    0.049794	    0.049794
         6.120000	    0.049631	    0.049631
         6.122000	    0.049469	    0.049469
         6.124000	    0.049308	    0.049308
         6.126000	    0.049146	    0.049146
         6.128000	    0.048985	    0.048985
         6.130000	    0.048824	    0.048824
         6.132000	    0.048664	    0.048664
         6.134000	    0.048504	    0.048504
         6.136000	    0.048345	    0.048345
         6.138000	    0.048186	    0.048186
         6.140000	    0.048028	    0.048028
         6.142000	    0.047870	    0.047870
         6.144000	    0.047712	    0.047712
         6.146000	    0.047554	    0.047554
         6.148000	    0.047397	    0.047397
         6.150000	    0.047240	    0.047240
         6.152000	    0.047084	    0.047084
         6.154000	    0.046928	    0.046928
         6.156000	    0.046773	    0.046773
         6.158000	    0.046617	    0.046617
         6.160000	    0.046463	    0.046463
         6.162000	    0.046309	    0.046309
         6.164000	    0.046155	    0.046155
         6.166000	    0.046001	    0.046001
         6.168000	    0.045848	    0.045848
         6.170000	    0.045695	    0.045695
         6.172000	    0.045542	    0.045542
         6.174000	    0.045390	    0.045390
         6.176000	    0.045238	    0.045238
         6.178000	    0.045087	    0.045087
         6.180000	    0.044936	    0.044936
         6.182000	    0.044785	    0.044785
         6.184000	    0.044635	    0.044635
         6.186000	    0.044486	    0.044486
         6.188000	    0.044336	    0.044336
         6.190000	    0.044187	    0.044187
         6.192000	    0.044039	    0.044039
         6.194000	    0.043890	    0.043890
         6.196000	    0.043742	    0.043742
         6.198000	    0.043595	    0.043595
         6.200000	    0.043447	    0.043447
         6.202000	    0.043301	    0.043301
         6.204000	    0.043154	    0.043154
         6.206000	    0.043008	    0.043008
         6.208000	    0.042862	    0.042862
         6.210000	    0.042717	    0.042717
         6.212000	    0.042572	    0.042572
         6.214000	    0.042427	    0.042427
         6.216000	    0.042283	    0.042283
         6.218000	    0.042139	    0.042139
         6.220000	    0.041996	    0.041996
         6.222000	    0.041853	    0.041853
         6.224000	    0.041710	    0.041710
         6.226000	    0.041567	    0.041567
         6.228000	    0.041425	    0.041425
         6.230000	    0.041283	    0.041283
         6.232000	    0.041142	    0.041142
         6.234000	    0.041000	    0.041000
         6.236000	    0.040860	    0.040860
         6.238000	    0.040719	    0.040719
         6.240000	    0.040579	    0.040579
         6.242000	    0.040440	    0.040440
         6.244000	    0.040301	    0.040301
         6.246000	    0.040162	    0.040162
         6.248000	    0.040023	    0.040023
         6.250000	    0.039885	    0.039885
         6.252000	    0.039747	    0.039747
         6.254000	    0.039610	    0.039610
         6.256000	    0.039473	    0.039473
         6.258000	    0.039336	    0.039336
         6.260000	    0.039199	    0.039199
         6.262000	    0.039062	    0.039062
         6.264000	    0.038927	    0.038927
         6.266000	    0.038791	    0.038791
         6.268000	    0.038656	    0.038656
         6.270000	    0.038521	    0.038521
         6.272000	    0.038386	    0.038386
         6.274000	    0.038252	    0.038252
         6.276000	    0.038118	    0.038118
         6.278000	    0.037985	    0.037985
         6.280000	    0.037852	    0.037852
         6.282000	    0.037719	    0.037719
         6.284000	    0.037586	    0.037586
         6.286000	    0.037454	    0.037454
         6.288000	    0.037322	    0.037322
         6.290000	    0.037190	    0.037190
         6.292000	    0.037059	    0.037059
         6.294000	    0.036929	    0.036929
         6.296000	    0.036798	    0.036798
         6.298000	    0.036668	    0.036668
         6.300000	    0.036538	    0.036538
         6.302000	    0.036409	    0.036409
         6.304000	    0.036280	    0.036280
         6.306000	    0.036151	    0.036151
         6.308000	    0.036022	    0.036022
         6.310000	    0.035893	    0.035893
         6.312000	    0.035765	    0.035765
         6.314000	    0.035637	    0.035637
         6.316000	    0.035510	    0.035510
         6.318000	    0.035382	    0.035382
         6.320000	    0.035255	    0.035255
         6.322000	    0.035129	    0.035129
         6.324000	    0.035003	    0.035003
         6.326000	    0.034876	    0.034876
         6.328000	    0.034751	    0.034751
         6.330000	    0.034626	    0.034626
         6.332000	    0.034500	    0.034500
         6.334000	    0.034376	    0.034376
         6.336000	    0.034251	    0.034251
         6.338000	    0.034127	    0.034127
         6.340000	    0.034003	    0.034003
         6.342000	    0.033880	    0.033880
         6.344000	    0.033757	    0.033757
         6.346000	    0.033634	    0.033634
         6.348000	    0.033511	    0.033511
         6.350000	    0.033389	    0.033389
         6.352000	    0.033267	    0.033267
         6.354000	    0.033145	    0.033145
         6.356000	    0.033023	    0.033023
         6.358000	    0.032902	    0.032902
         6.360000	    0.032781	    0.032781
         6.362000	    0.032660	    0.032660
         6.364000	    0.032540	    0.032540
         6.366000	    0.032420	    0.032420
         6.368000	    0.032300	    0.032300
         6.370000	    0.032181	    0.032181
         6.372000	    0.032062	    0.032062
         6.374000	    0.031943	    0.031943
         6.376000	    0.031824	    0.031824
         6.378000	    0.031706	    0.031706
         6.380000	    0.031588	    0.031588
         6.382000	    0.031470	    0.031470
         6.384000	    0.031352	    0.031352
         6.386000	    0.031235	    0.031235
         6.388000	    0.031118	    0.031118
         6.390000	    0.031001	    0.031001
         6.392000	    0.030884	    0.030884
         6.394000	    0.030768	    0.030768
         6.396000	    0.030652	    0.030652
         6.398000	    0.030536	    0.030536
         6.400000	    0.030421	    0.030421
         6.402000	    0.030305	    0.030305
         6.404000	    0.030190	    0.030190
         6.406000	    0.030076	    0.030076
         6.408000	    0.029961	    0.029961
         6.410000	    0.029847	    0.029847
         6.412000	    0.029733	    0.029733
         6.414000	    0.029619	    0.029619
         6.416000	    0.029505	    0.029505
         6.418000	    0.029392	    0.029392
         6.420000	    0.029279	    0.029279
         6.422000	    0.029166	    0.029166
         6.424000	    0.029054	    0.029054
         6.426000	    0.028941	    0.028941
         6.428000	    0.028829	    0.028829
         6.430000	    0.028717	    0.028717
         6.432000	    0.028606	    0.028606
         6.434000	    0.028494	    0.028494
         6.436000	    0.028383	    0.028383
         6.438000	    0.028272	    0.028272
         6.440000	    0.028161	    0.028161
         6.442000	    0.028051	    0.028051
         6.444000	    0.027940	    0.027940
         6.446000	    0.027830	    0.027830
         6.448000	    0.027720	    0.027720
         6.450000	    0.027610	    0.027610
         6.452000	    0.027501	    0.027501
         6.454000	    0.027392	    0.027392
         6.456000	    0.027283	    0.027283
         6.458000	    0.027174	    0.027174
         6.460000	    0.027065	    0.027065
         6.462000	    0.026957	    0.026957
         6.464000	    0.026849	    0.026849
         6.466000	    0.026741	    0.026741
         6.468000	    0.026634	    0.026634
         6.470000	    0.026527	    0.026527
         6.472000	    0.026419	    0.026419
         6.474000	    0.026313	    0.026313
         6.476000	    0.026206	    0.026206
         6.478000	    0.026099	    0.026099
         6.480000	    0.025993	    0.025993
         6.482000	    0.025887	    0.025887
         6.484000	    0.025781	    0.025781
         6.486000	    0.025675	    0.025675
         6.488000	    0.025569	    0.025569
         6.490000	    0.025464	    0.025464
         6.492000	    0.025359	    0.025359
         6.494000	    0.025254	    0.025254
         6.496000	    0.025149	    0.025149
         6.498000	    0.025044	    0.025044
         6.500000	    0.024939	    0.024939
         6.502000	    0.024835	    0.024835
         6.504000	    0.024731	    0.024731
         6.506000	    0.024627	    0.024627
         6.508000	    0.024524	    0.024524
         6.510000	    0.024420	    0.024420
         6.512000	    0.024317	    0.024317
         6.514000	    0.024214	    0.024214
         6.516000	    0.024111	    0.024111
         6.518000	    0.024009	    0.024009
         6.520000	    0.023906	    0.023906
         6.522000	    0.023803	    0.023803
         6.524000	    0.023701	    0.023701
         6.526000	    0.023599	    0.023599
         6.528000	    0.023497	    0.023497
         6.530000	    0.023395	    0.023395
         6.532000	    0.023294	    0.023294
         6.534000	    0.023193	    0.023193
         6.536000	    0.023092	    0.023092
         6.538000	    0.022991	    0.022991
         6.540000	    0.022890	    0.022890
         6.542000	    0.022789	    0.022789
         6.544000	    0.022689	    0.022689
         6.546000	    0.022589	    0.022589
         6.548000	    0.022488	    0.022488
         6.550000	    0.022388	    0.022388
         6.552000	    0.022288	    0.022288
         6.554000	    0.022189	    0.022189
         6.556000	    0.022089	    0.022089
         6.558000	    0.021989	    0.021989
         6.560000	    0.021890	    0.021890
         6.562000	    0.021791	    0.021791
         6.564000	    0.021692	    0.021692
         6.566000	    0.021593	    0.021593
         6.568000	    0.021495	    0.021495
         6.570000	    0.021396	    0.021396
         6.572000	    0.021298	    0.021298
         6.574000	    0.021200	    0.021200
         6.576000	    0.021102	    0.021102
         6.578000	    0.021004	    0.021004
         6.580000	    0.020906	    0.020906
         6.582000	    0.020809	    0.020809
         6.584000	    0.020712	    0.020712
         6.586000	    0.020614	    0.020614
         6.588000	    0.020517	    0.020517
         6.590000	    0.020420	    0.020420
         6.592000	    0.020323	    0.020323
         6.594000	    0.020226	    0.020226
         6.596000	    0.020130	    0.020130
         6.598000	    0.020034	    0.020034
         6.600000	    0.019937	    0.019937
         6.602000	    0.019841	    0.019841
         6.604000	    0.019745	    0.019745
         6.606000	    0.019649	    0.019649
         6.608000	    0.019553	    0.019553
         6.610000	    0.019458	    0.019458
         6.612000	    0.019362	    0.019362
         6.614000	    0.019267	    0.019267
         6.616000	    0.019172	    0.019172
         6.618000	    0.019077	    0.019077
         6.620000	    0.018982	    0.018982
         6.622000	    0.018886	    0.018886
         6.624000	    0.018792	    0.018792
         6.626000	    0.018698	    0.018698
         6.628000	    0.018603	    0.018603
         6.630000	    0.018509	    0.018509
         6.632000	    0.018415	    0.018415
         6.634000	    0.018320	    0.018320
         6.636000	    0.018226	    0.018226
         6.638000	    0.018132	    0.018132
         6.640000	    0.018039	    0.018039
         6.642000	    0.017945	    0.017945
         6.644000	    0.017852	    0.017852
         6.646000	    0.017758	    0.017758
         6.648000	    0.017665	    0.017665
         6.650000	    0.017572	    0.017572
         6.652000	    0.017479	    0.017479
         6.654000	    0.017386	    0.017386
         6.656000	    0.017293	    0.017293
         6.658000	    0.017200	    0.017200
         6.660000	    0.017107	    0.017107
         6.662000	    0.017015	    0.017015
         6.664000	    0.016922	    0.016922
         6.666000	    0.016830	    0.016830
         6.668000	    0.016738	    0.016738
         6.670000	    0.016646	    0.016646
         6.672000	    0.016554	    0.016554
         6.674000	    0.016462	    0.016462
         6.676000	    0.016371	    0.016371
         6.678000	    0.016279	    0.016279
         6.680000	    0.016187	    0.016187
         6.682000	    0.016096	    0.016096
         6.684000	    0.016004	    0.016004
         6.686000	    0.015913	    0.015913
         6.688000	    0.015822	    0.015822
         6.690000	    0.015731	    0.015731
         6.692000	    0.015640	    0.015640
         6.694000	    0.015549	    0.015549
         6.696000	    0.015459	    0.015459
         6.698000	    0.015368	    0.015368
         6.700000	    0.015278	    0.015278
         6.702000	    0.015187	    0.015187
         6.704000	    0.015097	    0.015097
         6.706000	    0.015006	    0.015006
         6.708000	    0.014916	    0.014916
         6.710000	    0.014826	    0.014826
         6.712000	    0.014736	    0.014736
         6.714000	    0.014646	    0.014646
         6.716000	    0.014556	    0.014556
         6.718000	    0.014467	    0.014467
         6.720000	    0.014377	    0.014377
         6.722000	    0.014288	    0.014288
         6.724000	    0.014199	    0.014199
         6.726000	    0.014110	    0.014110
         6.728000	    0.014021	    0.014021
         6.730000	    0.013931	    0.013931
         6.732000	    0.013842	    0.013842
         6.734000	    0.013753	    0.013753
         6.736000	    0.013664	    0.013664
         6.738000	    0.013575	    0.013575
         6.740000	    0.013487	    0.013487
         6.742000	    0.013398	    0.013398
         6.744000	    0.013310	    0.013310
         6.746000	    0.013221	    0.013221
         6.748000	    0.013133	    0.013133
         6.750000	    0.013045	    0.013045
         6.752000	    0.012957	    0.012957
         6.754000	    0.012869	    0.012869
         6.756000	    0.012781	    0.012781
         6.758000	    0.012693	    0.012693
         6.760000	    0.012606	    0.012606
         6.762000	    0.012518	    0.012518
         6.764000	    0.012431	    0.012431
         6.766000	    0.012344	    0.012344
         6.768000	    0.012256	    0.012256
         6.770000	    0.012169	    0.012169
         6.772000	    0.012082	    0.012082
         6.774000	    0.011995	    0.011995
         6.776000	    0.011908	    0.011908
         6.778000	    0.011822	    0.011822
         6.780000	    0.011735	    0.011735
         6.782000	    0.011648	    0.011648
         6.784000	    0.011562	    0.011562
         6.786000	    0.011476	    0.011476
         6.788000	    0.011390	    0.011390
         6.790000	    0.011303	    0.011303
         6.792000	    0.011217	    0.011217
         6.794000	    0.011131	    0.011131
         6.796000	    0.011045	    0.011045
         6.798000	    0.010960	    0.010960
         6.800000	    0.010874	    0.010874
         6.802000	    0.010789	    0.010789
         6.804000	    0.010703	    0.010703
         6.806000	    0.010618	    0.010618
         6.808000	    0.010533	    0.010533
         6.810000	    0.010447	    0.010447
         6.812000	    0.010362	    0.010362
         6.814000	    0.010277	    0.010277
         6.816000	    0.010193	    0.010193
         6.818000	    0.010108	    0.010108
         6.820000	    0.010024	    0.010024
         6.822000	    0.009940	    0.009940
         6.824000	    0.009855	    0.009855
         6.826000	    0.009771	    0.009771
         6.828000	    0.009687	    0.009687
         6.830000	    0.009603	    0.009603
         6.832000	    0.009519	    0.009519
         6.834000	    0.009436	    0.009436
         6.836000	    0.009352	    0.009352
         6.838000	    0.009268	    0.009268
         6.840000	    0.009185	    0.009185
         6.842000	    0.009102	    0.009102
         6.844000	    0.009019	    0.009019
         6.846000	    0.008936	    0.008936
         6.848000	    0.008853	    0.008853
         6.850000	    0.008771	    0.008771
         6.852000	    0.008688	    0.008688
         6.854000	    0.008605	    0.008605
         6.856000	    0.008523	    0.008523
         6.858000	    0.008442	    0.008442
         6.860000	    0.008359	    0.008359
         6.862000	    0.008278	    0.008278
         6.864000	    0.008196	    0.008196
         6.866000	    0.008115	    0.008115
         6.868000	    0.008033	    0.008033
         6.870000	    0.007952	    0.007952
         6.872000	    0.007871	    0.007871
         6.874000	    0.007790	    0.007790
         6.876000	    0.007709	    0.007709
         6.878000	    0.007629	    0.007629
         6.880000	    0.007548	    0.007548
         6.882000	    0.007467	    0.007467
         6.884000	    0.007387	    0.007387
         6.886000	    0.007308	    0.007308
         6.888000	    0.007228	    0.007228
         6.890000	    0.007148	    0.007148
         6.892000	    0.007069	    0.007069
         6.894000	    0.006990	    0.006990
         6.896000	    0.006911	    0.006911
         6.898000	    0.006832	    0.006832
         6.900000	    0.006753	    0.006753
         6.902000	    0.006674	    0.006674
         6.904000	    0.006595	    0.006595
         6.906000	    0.006517	    0.006517
         6.908000	    0.006439	    0.006439
         6.910000	    0.006361	    0.006361
         6.912000	    0.006283	    0.006283
         6.914000	    0.006206	    0.006206
         6.916000	    0.006129	    0.006129
         6.918000	    0.006052	    0.006052
         6.920000	    0.005975	    0.005975
         6.922000	    0.005899	    0.005899
         6.924000	    0.005822	    0.005822
         6.926000	    0.005746	    0.005746
         6.928000	    0.005670	    0.005670
         6.930000	    0.005594	    0.005594
         6.932000	    0.005518	    0.005518
         6.934000	    0.005443	    0.005443
         6.936000	    0.005368	    0.005368
         6.938000	    0.005293	    0.005293
         6.940000	    0.005218	    0.005218
         6.942000	    0.005144	    0.005144
         6.944000	    0.005070	    0.005070
         6.946000	    0.004996	    0.004996
         6.948000	    0.004922	    0.004922
         6.950000	    0.004849	    0.004849
         6.952000	    0.004775	    0.004775
         6.954000	    0.004702	    0.004702
         6.956000	    0.004630	    0.004630
         6.958000	    0.004558	    0.004558
         6.960000	    0.004485	    0.004485
         6.962000	    0.004413	    0.004413
         6.964000	    0.004342	    0.004342
         6.966000	    0.004271	    0.004271
         6.968000	    0.004200	    0.004200
         6.970000	    0.004129	    0.004129
         6.972000	    0.004059	    0.004059
         6.974000	    0.003989	    0.003989
         6.976000	    0.003919	    0.003919
         6.978000	    0.003850	    0.003850
         6.980000	    0.003781	    0.003781
         6.982000	    0.003712	    0.003712
         6.984000	    0.003643	    0.003643
         6.986000	    0.003575	    0.003575
         6.988000	    0.003507	    0.003507
         6.990000	    0.003440	    0.003440
         6.992000	    0.003373	    0.003373
         6.994000	    0.003306	    0.003306
         6.996000	    0.003240	    0.003240
         6.998000	    0.003174	    0.003174
         7.000000	    0.003108	    0.003108
         7.002000	    0.003043	    0.003043
         7.004000	    0.002978	    0.002978
         7.006000	    0.002914	    0.002914
         7.008000	    0.002850	    0.002850
         7.010000	    0.002786	    0.002786
         7.012000	    0.002723	    0.002723
         7.014000	    0.002660	    0.002660
         7.016000	    0.002597	    0.002597
         7.018000	    0.002535	    0.002535
         7.020000	    0.002473	    0.002473
         7.022000	    0.002412	    0.002412
         7.024000	    0.002351	    0.002351
         7.026000	    0.002291	    0.002291
         7.028000	    0.002231	    0.002231
         7.030000	    0.002171	    0.002171
         7.032000	    0.002112	    0.002112
         7.034000	    0.002054	    0.002054
         7.036000	    0.001996	    0.001996
         7.038000	    0.001939	    0.001939
         7.040000	    0.001882	    0.001882
         7.042000	    0.001825	    0.001825
         7.044000	    0.001768	    0.001768
         7.046000	    0.001713	    0.001713
         7.048000	    0.001658	    0.001658
         7.050000	    0.001604	    0.001604
         7.052000	    0.001550	    0.001550
         7.054000	    0.001497	    0.001497
         7.056000	    0.001444	    0.001444
         7.058000	    0.001392	    0.001392
         7.060000	    0.001341	    0.001341
         7.062000	    0.001290	    0.001290
         7.064000	    0.001239	    0.001239
         7.066000	    0.001190	    0.001190
         7.068000	    0.001141	    0.001141
         7.070000	    0.001092	    0.001092
         7.072000	    0.001044	    0.001044
         7.074000	    0.000998	    0.000998
         7.076000	    0.000952	    0.000952
         7.078000	    0.000905	    0.000905
         7.080000	    0.000860	    0.000860
         7.082000	    0.000817	    0.000817
         7.084000	    0.000773	    0.000773
         7.086000	    0.000730	    0.000730
         7.088000	    0.000689	    0.000689
         7.090000	    0.000648	    0.000648
         7.092000	    0.000607	    0.000607
         7.094000	    0.000567	    0.000567
         7.096000	    0.000529	    0.000529
         7.098000	    0.000491	    0.000491
         7.100000	    0.000453	    0.000453
         7.102000	    0.000418	    0.000418
         7.104000	    0.000384	    0.000384
         7.106000	    0.000349	    0.000349
         7.108000	    0.000316	    0.000316
         7.110000	    0.000286	    0.000286
         7.112000	    0.000255	    0.000255
         7.114000	    0.000224	    0.000224
         7.116000	    0.000197	    0.000197
         7.118000	    0.000171	    0.000171
         7.120000	    0.000144	    0.000144
         7.122000	    0.000119	    0.000119
         7.124000	    0.000099	    0.000099
         7.126000	    0.000078	    0.000078
         7.128000	    0.000056	    0.000056
         7.130000	    0.000040	    0.000040
         7.132000	    0.000027	    0.000027
         7.134000	    0.000012	    0.000012
         7.136000	    0.000000	    0.000000
         7.138000	    0.000000	    0.000000
         7.140000	    0.000000	    0.000000
         7.142000	    0.000000	    0.000000
         7.144000	    0.000000	    0.000000
         7.146000	    0.000000	    0.000000
         7.148000	    0.000000	    0.000000
         7.150000	    0.000000	    0.000000
         7.152000	    0.000000	    0.000000
         7.154000	    0.000000	    0.000000
         7.156000	    0.000000	    0.000000
         7.158000	    0.000000	    0.000000
         7.160000	    0.000000	    0.000000
         7.162000	    0.000000	    0.000000
         7.164000	    0.000000	    0.000000
         7.166000	    0.000000	    0.000000
         7.168000	    0.000000	    0.000000
         7.170000	    0.000000	    0.000000
         7.172000	    0.000000	    0.000000
         7.174000	    0.000000	    0.000000
         7.176000	    0.000000	    0.000000
         7.178000	    0.000000	    0.000000
         7.180000	    0.000000	    0.000000
         7.182000	    0.000000	    0.000000
         7.184000	    0.000000	    0.000000
         7.186000	    0.000000	    0.000000
         7.188000	    0.000000	    0.000000
         7.190000	    0.000000	    0.000000
         7.192000	    0.000000	    0.000000
         7.194000	    0.000000	    0.000000
         7.196000	    0.000000	    0.000000
         7.198000	    0.000000	    0.000000
         7.200000	    0.000000	    0.000000
         7.202000	    0.000000	    0.000000
         7.204000	    0.000000	    0.000000
         7.206000	    0.000000	    0.000000
         7.208000	    0.000000	    0.000000
         7.210000	    0.000000	    0.000000
         7.212000	    0.000000	    0.000000
         7.214000	    0.000000	    0.000000
         7.216000	    0.000000	    0.000000
         7.218000	    0.000000	    0.000000
         7.220000	    0.000000	    0.000000
         7.222000	    0.000000	    0.000000
         7.224000	    0.000000	    0.000000
         7.226000	    0.000000	    0.000000
         7.228000	    0.000000	    0.000000
         7.230000	    0.000000	    0.000000
         7.232000	    0.000000	    0.000000
         7.234000	    0.000000	    0.000000
         7.236000	    0.000000	    0.000000
         7.238000	    0.000000	    0.000000
         7.240000	    0.000000	    0.000000
         7.242000	    0.000000	    0.000000
         7.244000	    0.000000	    0.000000
         7.246000	    0.000000	    0.000000
         7.248000	    0.000000	    0.000000
         7.250000	    0.000000	    0.000000
         7.252000	    0.000000	    0.000000
         7.254000	    0.000000	    0.000000
         7.256000	    0.000000	    0.000000
         7.258000	    0.000000	    0.000000
         7.260000	    0.000000	    0.000000
         7.262000	    0.000000	    0.000000
         7.264000	    0.000000	    0.000000
         7.266000	    0.000000	    0.000000
         7.268000	    0.000000	    0.000000
         7.270000	    0.000000	    0.000000
         7.272000	    0.000000	    0.000000
         7.274000	    0.000000	    0.000000
         7.276000	    0.000000	    0.000000
         7.278000	    0.000000	    0.000000
         7.280000	    0.000000	    0.000000
         7.282000	    0.000000	    0.000000
         7.284000	    0.000000	    0.000000
         7.286000	    0.000000	    0.000000
         7.288000	    0.000000	    0.000000
         7.290000	    0.000000	    0.000000
         7.292000	    0.000000	    0.000000
         7.294000	    0.000000	    0.000000
         7.296000	    0.000000	    0.000000
         7.298000	    0.000000	    0.000000
         7.300000	    0.000000	    0.000000

